SUBJECT	SESSION	RUN	TRIAL	73KID	10KID	TIME	ISOLD	ISCORRECT	RT	CHANGEMIND	MEMORYRECENT	MEMORYFIRST	ISOLDCURRENT	ISCORRECTCURRENT	TOTAL1	TOTAL2	BUTTON	MISSINGDATA
3	1	1	1	46003	626	0.39943804743234068155	0	1	1570.9143310086801648	0	NaN	NaN	0	1	1	0	1	0
3	1	1	2	19257	5013	0.39948435628321021795	0	1	712.91399199981242418	0	NaN	NaN	0	1	1	0	1	0
3	1	1	3	36386	4850	0.39953063928987830877	0	1	589.66817799955606461	0	NaN	NaN	0	1	1	0	1	0
3	1	1	4	44343	8823	0.3995769404573366046	0	1	558.73350700130686164	0	NaN	NaN	0	1	1	0	1	0
3	1	1	5	62685	9538	0.39962322008796036243	0	1	473.76825100218411535	0	NaN	NaN	0	1	1	0	1	0
3	1	1	6	48340	6061	0.39966952975373715162	0	1	601.54219900141470134	0	NaN	NaN	0	1	1	0	1	0
3	1	1	7	65141	4421	0.39971580833662301302	0	1	560.47242799832019955	0	NaN	NaN	0	1	1	0	1	0
3	1	1	8	33348	3858	0.3997621024027466774	0	1	478.28712499176617712	0	NaN	NaN	0	1	1	0	1	0
3	1	1	9	33573	8124	0.39980839937925338745	0	1	458.93502500257454813	0	NaN	NaN	0	1	1	0	1	0
3	1	1	10	15093	4843	0.39985469926614314318	0	1	761.82852199417538941	0	NaN	NaN	0	1	1	0	1	0
3	1	1	11	54015	7941	0.39990098052658140659	0	1	883.74843700148630887	0	NaN	NaN	0	1	1	0	1	0
3	1	1	12	53207	4523	0.39994727796874940395	0	1	784.82215199619531631	0	NaN	NaN	0	1	1	0	1	0
3	1	1	13	64902	1070	0.40003986097872257233	0	1	793.81771500629838556	0	NaN	NaN	0	1	1	0	1	0
3	1	1	14	16797	9588	0.40008616296108812094	0	1	664.80897800647653639	0	NaN	NaN	0	1	1	0	1	0
3	1	1	15	46129	4623	0.40013244899455457926	0	1	558.85345699789468199	0	NaN	NaN	0	1	1	0	1	0
3	1	1	16	55355	3185	0.40017875190824270248	0	1	512.65502299065701663	0	NaN	NaN	0	1	1	0	1	0
3	1	1	17	9188	4586	0.40022503805812448263	0	1	757.72506199427880347	0	NaN	NaN	0	1	1	0	1	0
3	1	1	18	47059	1009	0.40027134050615131855	0	1	855.385875009233132	0	NaN	NaN	0	1	1	0	1	0
3	1	1	19	21621	8634	0.40031763107981532812	0	1	729.96518899162765592	0	NaN	NaN	0	1	1	0	1	0
3	1	1	20	34676	9648	0.40036383213009685278	0	1	574.20369298779405653	0	NaN	NaN	0	1	1	0	1	0
3	1	1	21	35718	9425	0.40041011804714798927	0	1	544.11675700976047665	0	NaN	NaN	0	1	1	0	1	0
3	1	1	22	22658	1344	0.40045642014592885971	0	1	644.38315399456769228	0	NaN	NaN	0	1	1	0	1	0
3	1	1	23	37985	7441	0.40054900664836168289	0	1	671.69964899949263781	0	NaN	NaN	0	1	1	0	1	0
3	1	1	24	57359	3902	0.40059529489371925592	0	1	857.5044439930934459	0	NaN	NaN	0	1	1	0	1	0
3	1	1	25	65096	8795	0.4006415980402380228	0	1	701.52601100562606007	0	NaN	NaN	0	1	1	0	1	0
3	1	1	26	39922	1840	0.40068789129145443439	0	1	638.0767200025729835	0	NaN	NaN	0	1	1	0	1	0
3	1	1	27	48302	1356	0.40073418500833213329	0	1	731.33966399473138154	0	NaN	NaN	0	1	1	0	1	0
3	1	1	28	37591	5506	0.40078048105351626873	0	1	645.07374700042419136	0	NaN	NaN	0	1	1	0	1	0
3	1	1	29	48618	666	0.40082677372265607119	0	1	602.96725199441425502	0	NaN	NaN	0	1	1	0	1	0
3	1	1	30	59973	8240	0.40087305998895317316	0	1	615.01216900069266558	0	NaN	NaN	0	1	1	0	1	0
3	1	1	31	11632	7232	0.40091936185490339994	0	1	705.7018909981707111	0	NaN	NaN	0	1	1	0	1	0
3	1	1	32	1398	5691	0.40096565790008753538	0	1	553.90477301261853427	0	NaN	NaN	0	1	1	0	1	0
3	1	1	33	38532	6661	0.40101194789167493582	0	1	465.73168000031728297	0	NaN	NaN	0	1	1	0	1	0
3	1	1	34	65258	2400	0.40105823962949216366	0	1	593.06173599907197058	0	NaN	NaN	0	1	1	0	1	0
3	1	1	35	63299	2252	0.40115083078853785992	0	1	692.32440700579900295	0	NaN	NaN	0	1	1	0	1	0
3	1	1	36	44981	612	0.4011971188010647893	0	1	687.64692600234411657	0	NaN	NaN	0	1	1	0	1	0
3	1	1	37	66004	1609	0.40124341775663197041	0	1	641.17972100211773068	0	NaN	NaN	0	1	1	0	1	0
3	1	1	38	4582	3579	0.40128970984369516373	0	1	557.11289300234057009	0	NaN	NaN	0	1	1	0	1	0
3	1	1	39	17276	1703	0.40133600181434303522	0	1	550.51325699605513364	0	NaN	NaN	0	1	1	0	1	0
3	1	1	40	22076	9976	0.40138230659067630768	0	1	869.4287120015360415	0	NaN	NaN	0	1	1	0	1	0
3	1	1	41	72181	5770	0.40142859355546534061	0	1	593.17622899834532291	0	NaN	NaN	0	1	1	0	1	0
3	1	1	42	23639	8748	0.40147488622460514307	0	1	638.25008099956903607	0	NaN	NaN	0	1	1	0	1	0
3	1	1	43	12018	9202	0.40152118040714412928	0	1	685.94767800823319703	0	NaN	NaN	0	1	2	0	1	0
3	1	1	44	63760	3123	0.40156738134101033211	0	1	880.24951600527856499	0	NaN	NaN	0	1	1	0	1	0
3	1	1	45	32626	436	0.40161367773544043303	0	1	732.38570400280877948	0	NaN	NaN	0	1	1	0	1	0
3	1	1	46	9188	4586	0.40170625911559909582	1	1	1276.5946109866490588	1	28	NaN	1	1	1	1	2	0
3	1	1	47	36914	1499	0.4017525514354929328	0	1	966.31143699050880969	0	NaN	NaN	0	1	1	0	1	0
3	1	1	48	11064	2872	0.40179885353427380323	0	1	931.56960800115484744	0	NaN	NaN	0	1	1	0	1	0
3	1	1	49	9020	9173	0.40184513921849429607	0	1	1102.3419669945724308	0	NaN	NaN	0	1	1	0	1	0
3	1	1	50	31426	2665	0.40189144131727516651	0	1	855.2502929960610345	0	NaN	NaN	0	1	1	0	1	0
3	1	1	51	62700	1045	0.40193773247301578522	0	1	924.82855700654909015	0	NaN	NaN	0	1	1	0	1	0
3	1	1	52	6631	1974	0.40198402071837335825	0	1	788.72467600740492344	0	NaN	NaN	0	1	1	0	1	0
3	1	1	53	8954	2268	0.4020303159486502409	0	1	771.63641800871118903	0	NaN	NaN	0	1	1	0	1	0
3	1	1	54	56177	7771	0.40207661956083029509	0	1	1312.2277770016808063	0	NaN	NaN	0	1	1	0	1	0
3	1	1	55	41422	6336	0.40216920245438814163	0	1	1230.008632002864033	0	NaN	NaN	0	1	1	0	1	0
3	1	1	56	53053	727	0.40221549489069730043	0	1	831.89817800302989781	0	NaN	NaN	0	1	1	0	1	0
3	1	1	57	4931	40	0.40226179431192576885	0	1	974.47954700328409672	0	NaN	NaN	0	1	1	0	1	0
3	1	1	58	65119	6000	0.40230808535125106573	0	1	1117.8175320092123002	0	NaN	NaN	0	1	1	0	1	0
3	1	1	59	72130	7046	0.40235438593663275242	0	1	1102.9627780080772936	0	NaN	NaN	0	1	1	0	1	0
3	1	1	60	40450	1607	0.40240067709237337112	0	1	826.20039000175893307	0	NaN	NaN	0	1	1	0	1	0
3	1	1	61	47783	2132	0.4024469711584970355	0	1	971.68515100202057511	0	NaN	NaN	0	1	1	0	1	0
3	1	1	62	52462	5352	0.40249325800687074661	0	1	812.95119799324311316	0	NaN	NaN	0	1	1	0	1	0
3	1	1	63	28428	2514	0.40253955067601054907	0	1	981.41254899383056909	0	NaN	NaN	0	1	2	0	1	0
3	1	2	1	11222	5730	0.40415289869997650385	0	1	555.42077499558217824	0	NaN	NaN	0	1	1	0	1	0
3	1	2	2	43995	4135	0.40419918578118085861	0	1	786.52284099371172488	0	NaN	NaN	0	1	1	0	1	0
3	1	2	3	70574	5169	0.4042454893933609128	0	1	602.22414101008325815	0	NaN	NaN	0	1	1	0	1	0
3	1	2	4	16394	5821	0.40429178136400878429	0	1	613.80353200365789235	0	NaN	NaN	0	1	1	0	1	0
3	1	2	5	36907	8842	0.40433806867804378271	0	1	680.64801199943758547	0	NaN	NaN	0	1	1	0	1	0
3	1	2	6	43995	4135	0.40438436775002628565	1	1	1064.4471179984975606	0	3	NaN	1	1	0	1	2	0
3	1	2	7	62938	4990	0.40443066251464188099	0	1	907.24088301067240536	0	NaN	NaN	0	1	1	0	1	0
3	1	2	8	25075	9955	0.40447695308830589056	0	1	878.04390200471971184	0	NaN	NaN	0	1	1	0	1	0
3	1	2	9	44654	7331	0.40452324808575212955	0	1	1111.0460459894966334	0	NaN	NaN	0	1	1	0	1	0
3	1	2	10	67903	3470	0.40456954471301287413	0	1	877.5729179906193167	0	NaN	NaN	0	1	1	0	1	0
3	1	2	11	55827	9913	0.40461583866272121668	0	1	561.91181500616949052	0	NaN	NaN	0	1	1	0	1	0
3	1	2	12	20608	3207	0.40470841957721859217	0	1	614.49533900304231793	0	NaN	NaN	0	1	1	0	1	0
3	1	2	13	44838	5799	0.40475471434183418751	0	1	555.73162100336048752	0	NaN	NaN	0	1	1	0	1	0
3	1	2	14	25730	4068	0.40480100957211107016	0	1	592.35593699850142002	0	NaN	NaN	0	1	1	0	1	0
3	1	2	15	2876	2204	0.40484731062315404415	0	1	826.51500099746044725	0	NaN	NaN	0	1	1	0	1	0
3	1	2	16	5713	7081	0.40489360445644706488	0	1	1169.7159670002292842	0	NaN	NaN	0	1	1	0	1	0
3	1	2	17	18826	3632	0.4049398982897400856	0	1	1027.7355090074706823	0	NaN	NaN	0	1	1	0	1	0
3	1	2	18	34917	3444	0.40498618641868233681	0	1	672.87818300246726722	0	NaN	NaN	0	1	1	0	1	0
3	1	2	19	32125	2840	0.40503249014727771282	0	1	742.25288200250361115	0	NaN	NaN	0	1	1	0	1	0
3	1	2	20	48560	1538	0.40507878176867961884	0	1	717.63908601133152843	0	NaN	NaN	0	1	1	0	1	0
3	1	2	21	3821	8951	0.40517136908601969481	0	1	670.17044000385794789	0	NaN	NaN	0	1	1	0	1	0
3	1	2	22	11868	8009	0.40521766396705061197	0	1	748.70207899948582053	0	NaN	NaN	0	1	1	0	1	0
3	1	2	23	41307	5772	0.40526395302731543779	0	1	560.2435170003445819	0	NaN	NaN	0	1	1	0	1	0
3	1	2	24	52657	5200	0.40531025431118905544	0	1	580.2649300021585077	0	NaN	NaN	0	1	1	0	1	0
3	1	2	25	25134	7984	0.40535654488485306501	0	1	615.77288400440011173	0	NaN	NaN	0	1	1	0	1	0
3	1	2	26	53306	9865	0.40540283988229930401	0	1	993.06157500541303307	0	NaN	NaN	0	1	1	0	1	0
3	1	2	27	55349	7367	0.40544904023408889771	0	1	875.45675599540118128	0	NaN	NaN	0	1	1	0	1	0
3	1	2	28	32626	436	0.40549532766453921795	1	1	1179.6977740013971925	0	45	NaN	1	1	0	1	2	0
3	1	2	29	27752	3014	0.40554162568878382444	0	1	1079.0259140048874542	0	NaN	NaN	0	1	1	0	1	0
3	1	2	30	10366	3569	0.40558792045339941978	0	1	702.97096000285819173	0	NaN	NaN	0	1	1	0	1	0
3	1	2	31	15375	6871	0.40568051126319915056	0	1	856.73617399879731238	0	NaN	NaN	0	1	1	0	1	0
3	1	2	32	59168	4263	0.40572680160403251648	0	1	602.92360700259450823	0	NaN	NaN	0	1	1	0	1	0
3	1	2	33	18079	3694	0.40577309520449489355	0	1	633.12752000638283789	0	NaN	NaN	0	1	1	0	1	0
3	1	2	34	70915	5322	0.40581938705872744322	0	1	712.67508799792267382	0	NaN	NaN	0	1	1	0	1	0
3	1	2	35	39430	4061	0.40586568240541964769	0	1	938.56988901097793132	0	NaN	NaN	0	1	1	0	1	0
3	1	2	36	5809	7985	0.40591197542380541563	0	1	1472.4428310000803322	0	NaN	NaN	0	1	1	0	1	0
3	1	2	37	53692	6041	0.40595827181823551655	0	1	817.3453199997311458	0	NaN	NaN	0	1	1	0	1	0
3	1	2	38	16061	6142	0.40600456495303660631	0	1	667.57495699857827276	0	NaN	NaN	0	1	1	0	1	0
3	1	2	39	51314	6843	0.40605086134746670723	0	1	703.28150999557692558	0	NaN	NaN	0	1	1	0	1	0
3	1	2	40	70074	7442	0.40609714935999363661	0	1	657.30838100716937333	0	NaN	NaN	0	1	1	0	1	0
3	1	2	41	60119	1108	0.40618974366225302219	0	1	780.54575200076214969	0	NaN	NaN	0	1	1	0	1	0
3	1	2	42	4053	9936	0.40623604040592908859	0	1	661.4121270104078576	0	NaN	NaN	0	1	1	0	1	0
3	1	2	43	8823	2757	0.40628232981543987989	0	1	878.62365999899338931	0	NaN	NaN	0	1	1	0	1	0
3	1	2	44	31894	9658	0.40632862551137804985	0	1	1106.8022510007722303	0	NaN	NaN	0	1	1	0	1	0
3	1	2	45	70574	5169	0.40637491154484450817	1	1	938.73744500160682946	0	41	NaN	1	1	0	1	2	0
3	1	2	46	57067	3376	0.40642120828852057457	0	1	903.07268600736279041	0	NaN	NaN	0	1	1	0	1	0
3	1	2	47	5986	7287	0.4064675051486119628	0	1	903.70277200418058783	0	NaN	NaN	0	1	1	0	1	0
3	1	2	48	16884	5363	0.40651380526833236217	0	1	812.07849299244116992	0	NaN	NaN	0	1	1	0	1	0
3	1	2	49	57209	5834	0.40656009537633508444	0	1	1403.232200987986289	0	NaN	NaN	0	1	1	0	1	0
3	1	2	50	46071	6448	0.40660638466943055391	0	1	762.68610599800013006	0	NaN	NaN	0	1	1	0	1	0
3	1	2	51	68894	4186	0.40665258793160319328	0	1	713.94264498667325824	0	NaN	NaN	0	1	1	0	1	0
3	1	2	52	20918	9715	0.40669888141565024853	0	1	743.86353700538165867	0	NaN	NaN	0	1	1	0	1	0
3	1	2	53	24357	1430	0.40679146291222423315	0	1	662.91395500593353063	0	NaN	NaN	0	1	1	0	1	0
3	1	2	54	57631	9621	0.40683775872457772493	0	1	655.34855399164371192	0	NaN	NaN	0	1	1	0	1	0
3	1	2	55	22888	7112	0.40688405232504010201	0	1	557.72382800932973623	0	NaN	NaN	0	1	1	0	1	0
3	1	2	56	58758	9845	0.40693034569267183542	0	1	939.45926100423093885	0	NaN	NaN	0	1	1	0	1	0
3	1	2	57	53130	7473	0.4069766470929607749	0	1	802.22391299321316183	0	NaN	NaN	0	1	1	0	1	0
3	1	2	58	6432	60	0.40702293789945542812	0	1	715.92573399539105594	0	NaN	NaN	0	1	1	0	1	0
3	1	2	59	8823	2757	0.40706923638936132193	1	1	946.68665599601808935	0	15	NaN	1	1	0	1	2	0
3	1	2	60	45999	2704	0.40711553057190030813	0	1	620.5964970140485093	0	NaN	NaN	0	1	1	0	1	0
3	1	2	61	21621	8634	0.40716181532479822636	1	0	730.55068599933292717	0	104	NaN	1	0	1	0	1	0
3	1	2	62	16259	4900	0.40720811823848634958	0	1	617.99129001155961305	0	NaN	NaN	0	1	1	0	1	0
3	1	3	1	11023	7336	0.40885230829007923603	0	1	715.36127199942711741	0	NaN	NaN	0	1	1	0	1	0
3	1	3	2	70336	970	0.40889861516188830137	0	1	965.56992200203239918	0	NaN	NaN	0	1	1	0	1	0
3	1	3	3	32890	4229	0.40894489584024995565	0	1	1157.0369839901104569	0	NaN	NaN	0	1	1	0	1	0
3	1	3	4	47314	3770	0.40899119595997035503	0	1	653.07318499253597111	0	NaN	NaN	0	1	1	0	1	0
3	1	3	5	39885	3284	0.40903748420532792807	0	1	617.10078499163500965	0	NaN	NaN	0	1	1	0	1	0
3	1	3	6	52935	6316	0.40908378723543137312	0	1	601.49075200024526566	0	NaN	NaN	0	1	1	0	1	0
3	1	3	7	42166	1266	0.40913006349001079798	0	1	559.37124899355694652	0	NaN	NaN	0	1	1	0	1	0
3	1	3	8	36577	479	0.40917638037353754044	0	1	610.85376699338667095	0	NaN	NaN	0	1	1	0	1	0
3	1	3	9	32224	6277	0.40922265429981052876	0	1	517.44929800042882562	0	NaN	NaN	0	1	1	0	1	0
3	1	3	10	4578	9754	0.40926896408200263977	0	1	653.73910999915096909	0	NaN	NaN	0	1	1	0	1	0
3	1	3	11	67843	7300	0.40936155617237091064	0	1	706.29334499244578183	0	NaN	NaN	0	1	1	0	1	0
3	1	3	12	35919	1104	0.40940783778205513954	0	1	779.33852800924796611	0	NaN	NaN	0	1	1	0	1	0
3	1	3	13	53374	7313	0.40945414453744888306	0	1	561.00589899870101362	0	NaN	NaN	0	1	1	0	1	0
3	1	3	14	65715	3250	0.40950041671749204397	0	1	803.45956399105489254	0	NaN	NaN	0	1	1	0	1	0
3	1	3	15	53670	6726	0.40954672941006720066	0	1	648.66608200827613473	0	NaN	NaN	0	1	1	0	1	0
3	1	3	16	72172	8054	0.40959301567636430264	0	1	535.85569499409757555	0	NaN	NaN	0	1	1	0	1	0
3	1	3	17	13656	7613	0.40963931102305650711	0	1	463.48640100040938705	0	NaN	NaN	0	1	1	0	1	0
3	1	3	18	36567	6236	0.40968559763859957457	0	1	552.96863500552717596	0	NaN	NaN	0	1	1	0	1	0
3	1	3	19	60038	2259	0.40973190800286829472	0	1	676.71420398983173072	0	NaN	NaN	0	1	1	0	1	0
3	1	3	20	38523	3968	0.40977818821556866169	0	1	586.13972998864483088	0	NaN	NaN	0	1	1	0	1	0
3	1	3	21	32480	2980	0.40982449671719223261	0	1	521.73873000720050186	0	NaN	NaN	0	1	1	0	1	0
3	1	3	22	51199	9718	0.40987077611498534679	0	1	611.28708299656864256	0	NaN	NaN	0	1	1	0	1	0
3	1	3	23	46174	1550	0.40991706878412514925	0	1	901.97351000097114593	0	NaN	NaN	0	1	1	0	1	0
3	1	3	24	32480	2980	0.40996336645912379026	1	1	2538.2512399955885485	1	2	NaN	1	1	1	1	2	0
3	1	3	25	38357	6274	0.41005595226306468248	0	1	729.8927680094493553	0	NaN	NaN	0	1	1	0	1	0
3	1	3	26	66945	6666	0.41010224679484963417	0	1	635.10752000729553401	0	NaN	NaN	0	1	1	0	1	0
3	1	3	27	69603	3580	0.41014854272361844778	0	1	902.65865800029132515	0	NaN	NaN	0	1	1	0	1	0
3	1	3	28	57047	791	0.4101948300376534462	0	1	886.25272900389973074	0	NaN	NaN	0	1	1	0	1	0
3	1	3	29	56177	7771	0.41024112899322062731	1	0	1458.3911079971585423	0	99	NaN	1	0	1	0	1	0
3	1	3	30	5809	7985	0.41028742503840476274	1	1	879.51042799977585673	0	55	NaN	1	1	0	1	2	0
3	1	3	31	11261	5651	0.41033371991943567991	0	1	1694.5538540021516383	0	NaN	NaN	0	1	1	0	1	0
3	1	3	32	70103	4786	0.41037991363555192947	0	1	812.63342399324756116	0	NaN	NaN	0	1	1	0	1	0
3	1	3	33	33818	5910	0.41042620455846190453	0	1	883.47217699629254639	0	NaN	NaN	0	1	1	0	1	0
3	1	3	34	42849	6588	0.41047250921837985516	0	1	607.19640000024810433	0	NaN	NaN	0	1	1	0	1	0
3	1	3	35	38481	5925	0.4105187918758019805	0	1	676.97068699635565281	0	NaN	NaN	0	1	1	0	1	0
3	1	3	36	51150	5699	0.41061139025259763002	0	1	607.05452199908904731	0	NaN	NaN	0	1	1	0	1	0
3	1	3	37	50489	3719	0.41065768152475357056	0	1	655.51745801349170506	0	NaN	NaN	0	1	1	0	1	0
3	1	3	38	59157	5440	0.4107039750088006258	0	1	704.39488699776120484	0	NaN	NaN	0	1	1	0	1	0
3	1	3	39	34287	9470	0.41075026965700089931	0	1	907.30071200232487172	0	NaN	NaN	0	1	1	0	1	0
3	1	3	40	10253	1330	0.41079656162764877081	0	1	614.08493200724478811	0	NaN	NaN	0	1	1	0	1	0
3	1	3	41	11094	8935	0.410842853132635355	0	1	750.59986500127706677	0	NaN	NaN	0	1	1	0	1	0
3	1	3	42	7660	80	0.41088915697764605284	0	1	715.96717300417367369	0	NaN	NaN	0	1	1	0	1	0
3	1	3	43	68613	2159	0.4109354392858222127	0	1	654.30095599731430411	0	NaN	NaN	0	1	1	0	1	0
3	1	3	44	65145	1866	0.41098174196667969227	0	1	709.12241000041831285	0	NaN	NaN	0	1	1	0	1	0
3	1	3	45	38105	5965	0.4110743239289149642	0	1	1005.7409919972997159	0	NaN	NaN	0	1	1	0	1	0
3	1	3	46	65440	7512	0.41112062183674424887	0	1	1546.1937130021397024	0	NaN	NaN	0	1	1	0	1	0
3	1	3	47	4844	4025	0.41116690938360989094	0	1	756.36804899841081351	0	NaN	NaN	0	1	1	0	1	0
3	1	3	48	4844	4025	0.41121321124956011772	1	1	854.71181799948681146	0	0	NaN	1	1	0	1	2	0
3	1	3	49	30374	403	0.41125950682908296585	0	1	839.016311991144903	0	NaN	NaN	0	1	1	0	1	0
3	1	3	50	46620	1665	0.41130579216405749321	0	1	884.46945301257073879	0	NaN	NaN	0	1	1	0	1	0
3	1	3	51	71019	9667	0.41135209507774561644	0	1	872.29522399138659239	0	NaN	NaN	0	1	1	0	1	0
3	1	3	52	25960	340	0.4113983834395185113	0	1	703.02674599224701524	0	NaN	NaN	0	1	1	0	1	0
3	1	3	53	12150	6692	0.41144468251150101423	0	1	702.5327809969894588	0	NaN	NaN	0	1	1	0	1	0
3	1	3	54	53633	3824	0.4115372637752443552	0	1	702.91530199756380171	0	NaN	NaN	0	1	1	0	1	0
3	1	3	55	37643	1160	0.41158356505911797285	0	1	731.34460300207138062	0	NaN	NaN	0	1	1	0	1	0
3	1	3	56	72130	7046	0.41162978892680257559	1	1	854.86189799848943949	0	121	NaN	1	1	0	1	2	0
3	1	3	57	61646	7852	0.41167605726514011621	0	1	1032.9605560109484941	0	NaN	NaN	0	1	1	0	1	0
3	1	3	58	45064	5291	0.41172234888654202223	0	1	813.08827300381381065	0	NaN	NaN	0	1	1	0	1	0
3	1	3	59	40219	3595	0.41176863829605281353	0	1	911.24629401019774377	0	NaN	NaN	0	1	1	0	1	0
3	1	3	60	35760	2325	0.41181494342163205147	0	1	809.81972398876678199	0	NaN	NaN	0	1	1	0	1	0
3	1	3	61	47309	4285	0.41186122654471546412	0	1	678.39768801059108227	0	NaN	NaN	0	1	1	0	1	0
3	1	3	62	54621	8561	0.41190752387046813965	0	1	984.60618099488783628	0	NaN	NaN	0	1	1	0	1	0
3	1	3	63	27752	3014	0.41195381572470068932	1	1	956.06938999844714999	0	95	NaN	1	1	0	1	2	0
3	1	4	1	30374	403	0.41349858441390097141	1	0	904.56289700523484498	0	14	NaN	1	0	1	0	1	0
3	1	4	2	44981	612	0.41354488302022218704	1	0	974.0249729948118329	0	153	NaN	1	0	1	0	1	0
3	1	4	3	12769	4687	0.41359117941465228796	0	1	815.57549099670723081	0	NaN	NaN	0	1	1	0	1	0
3	1	4	4	35718	9425	0.41363747336436063051	1	1	880.87041600374504924	0	170	NaN	1	1	0	1	2	0
3	1	4	5	47128	7750	0.41368376452010124922	0	1	702.45601701026316732	0	NaN	NaN	0	1	1	0	1	0
3	1	4	6	32274	3194	0.41373006673529744148	0	1	839.56566099368501455	0	NaN	NaN	0	1	1	0	1	0
3	1	4	7	53677	2628	0.41377634857781231403	0	1	902.66109899675939232	0	NaN	NaN	0	1	1	0	1	0
3	1	4	8	16174	9722	0.4138226538198068738	0	1	756.35896899621002376	0	NaN	NaN	0	1	1	0	1	0
3	1	4	9	54621	8561	0.41386893391609191895	1	1	838.58017899910919368	0	9	NaN	1	1	0	1	2	0
3	1	4	10	43984	2670	0.41391523589845746756	0	1	702.47150000068359077	0	NaN	NaN	0	1	1	0	1	0
3	1	4	11	27545	5109	0.41400782670825719833	0	1	751.11044700315687805	0	NaN	NaN	0	1	1	0	1	0
3	1	4	12	20103	3457	0.41405410878360271454	0	1	706.27471301122568548	0	NaN	NaN	0	1	1	0	1	0
3	1	4	13	29182	9972	0.41410041309427469969	0	1	824.39591300499159843	0	NaN	NaN	0	1	1	0	1	0
3	1	4	14	65415	899	0.41414663358591496944	0	1	641.29140799923334271	0	NaN	NaN	0	1	1	0	1	0
3	1	4	15	53844	5741	0.41419289808254688978	0	1	851.79927200078964233	0	NaN	NaN	0	1	1	0	1	0
3	1	4	16	44557	3831	0.41423919005319476128	0	1	1113.0893559893593192	0	NaN	NaN	0	1	1	0	1	0
3	1	4	17	3751	3799	0.41428549133706837893	0	1	1102.266485002473928	0	NaN	NaN	0	1	1	0	1	0
3	1	4	18	5958	2517	0.41433178388979285955	0	1	863.85599699860904366	0	NaN	NaN	0	1	1	0	1	0
3	1	4	19	59044	6504	0.41437807423062622547	0	1	813.1281160021899268	0	NaN	NaN	0	1	1	0	1	0
3	1	4	20	45917	3548	0.41447066084947437048	0	1	615.85591000039130449	0	NaN	NaN	0	1	1	0	1	0
3	1	4	21	44013	6399	0.41451695782598108053	0	1	830.14978599385358393	0	NaN	NaN	0	1	1	0	1	0
3	1	4	22	9065	3095	0.41456325561739504337	0	1	587.57151798636186868	0	NaN	NaN	0	1	1	0	1	0
3	1	4	23	38103	9021	0.41460955003276467323	0	1	705.69893300125841051	0	NaN	NaN	0	1	1	0	1	0
3	1	4	24	10598	9121	0.41465584479738026857	0	1	779.38547199300955981	0	NaN	NaN	0	1	1	0	1	0
3	1	4	25	61646	7852	0.41470213409047573805	1	1	1328.3630379883106798	0	30	NaN	1	1	0	1	2	0
3	1	4	26	60119	1108	0.41474843211472034454	1	1	891.73668700095731765	0	109	NaN	1	1	0	1	2	0
3	1	4	27	16232	8441	0.41479472036007791758	0	1	779.28411100583616644	0	NaN	NaN	0	1	1	0	1	0
3	1	4	28	40762	9826	0.41484102234244346619	0	1	1222.5197520019719377	0	NaN	NaN	0	1	1	0	1	0
3	1	4	29	18128	7559	0.41488731955178081989	0	1	1678.612980991601944	0	NaN	NaN	0	1	1	0	1	0
3	1	4	30	22191	2880	0.41497990163043141365	0	1	706.11541799735277891	0	NaN	NaN	0	1	1	0	1	0
3	1	4	31	42733	9949	0.41502619918901473284	0	1	789.88246600783895701	0	NaN	NaN	0	1	1	0	1	0
3	1	4	32	37985	7441	0.41507248987909406424	1	1	1034.953934999066405	0	196	NaN	1	1	0	1	2	0
3	1	4	33	15003	4751	0.41511878615710884333	0	1	818.74193300609476864	0	NaN	NaN	0	1	1	0	1	0
3	1	4	34	63933	5679	0.41516507882624864578	0	0	1789.5472570089623332	0	NaN	NaN	0	0	0	1	2	0
3	1	4	35	53306	9865	0.41521137475501745939	1	1	1269.9868759955279529	0	133	NaN	1	1	0	1	2	0
3	1	4	36	53712	1645	0.41525766719132661819	0	1	808.4516350063495338	0	NaN	NaN	0	1	1	0	1	0
3	1	4	37	42166	1266	0.41530395334120839834	1	1	1005.9934769960818812	0	92	NaN	1	1	0	1	2	0
3	1	4	38	70902	1549	0.41535025788471102715	0	1	830.27854199463035911	0	NaN	NaN	0	1	1	0	1	0
3	1	4	39	32890	4229	0.41539655311498790979	1	1	1040.8708889881381765	0	98	NaN	1	1	0	1	2	0
3	1	4	40	51552	9562	0.4154427478788420558	0	1	912.78982200310565531	0	NaN	NaN	0	1	1	0	1	0
3	1	4	41	6419	6187	0.41553532879333943129	0	1	881.38622899714391679	0	NaN	NaN	0	1	1	0	1	0
3	1	4	42	23639	8748	0.41558162320870906115	1	1	879.12602900178171694	0	187	NaN	1	1	0	1	2	0
3	1	4	43	61223	8374	0.41562792274635285139	0	1	1682.9559370089555159	0	NaN	NaN	0	1	1	0	1	0
3	1	4	44	42172	559	0.41567421890795230865	0	1	836.70534999691881239	0	NaN	NaN	0	1	1	0	1	0
3	1	4	45	5603	53	0.41572051402181386948	0	1	853.92343899002298713	0	NaN	NaN	0	1	1	0	1	0
3	1	4	46	13240	8043	0.41576680017169564962	0	1	810.91598200146108866	0	NaN	NaN	0	1	1	0	1	0
3	1	4	47	58252	8972	0.41581310553010553122	0	1	1001.5184630028670654	0	NaN	NaN	0	1	1	0	1	0
3	1	4	48	70875	5860	0.41585939598735421896	0	1	737.59842800791375339	0	NaN	NaN	0	1	1	0	1	0
3	1	4	49	19809	3756	0.41590568504761904478	0	1	626.01973600976634771	0	NaN	NaN	0	1	1	0	1	0
3	1	4	50	59308	4734	0.41595198633149266243	0	1	717.62744200532324612	0	NaN	NaN	0	1	1	0	1	0
3	1	4	51	39649	8985	0.4159982786513864994	0	1	572.18579699110705405	0	NaN	NaN	0	1	1	0	1	0
3	1	4	52	47442	5862	0.4160445645684376359	0	1	804.40308299148455262	0	NaN	NaN	0	1	1	0	1	0
3	1	4	53	11978	1681	0.41613715537823736668	0	1	649.47647700319066644	0	NaN	NaN	0	1	1	0	1	0
3	1	4	54	72172	8054	0.41618345666211098433	1	0	738.01311300485394895	0	100	NaN	1	0	1	0	1	0
3	1	4	55	36174	1983	0.41622974374331533909	0	1	745.51415500172879547	0	NaN	NaN	0	1	1	0	1	0
3	1	4	56	63075	7973	0.41627604723908007145	0	0	1181.2169089971575886	0	NaN	NaN	0	0	0	1	2	0
3	1	4	57	41220	2469	0.41632232919801026583	0	1	786.28558100899681449	0	NaN	NaN	0	1	1	0	1	0
3	1	4	58	21602	265	0.41636862966697663069	0	1	1179.2698700010078028	0	NaN	NaN	0	1	1	0	1	0
3	1	4	59	62303	860	0.41641492594499140978	0	1	1010.2978100039763376	0	NaN	NaN	0	1	1	0	1	0
3	1	4	60	16243	3951	0.41646121989469975233	0	1	841.27174600143916905	0	NaN	NaN	0	1	1	0	1	0
3	1	4	61	34917	3444	0.41650751011911779642	1	0	616.32122599985450506	0	167	NaN	1	0	1	0	1	0
3	1	4	62	5302	45	0.41655380127485841513	0	1	682.01670500275213271	0	NaN	NaN	0	1	2	0	1	0
3	1	5	1	15493	187	0.41921460058074444532	0	1	1067.3600119916955009	0	NaN	NaN	0	1	1	0	1	0
3	1	5	2	37686	6960	0.41926088463515043259	0	1	669.23967099864967167	0	NaN	NaN	0	1	1	0	1	0
3	1	5	3	12158	9857	0.41930718894582241774	0	1	775.58626500831451267	0	NaN	NaN	0	1	1	0	1	0
3	1	5	4	70420	9133	0.41935348149854689837	0	1	777.26777899079024792	0	NaN	NaN	0	1	1	0	1	0
3	1	5	5	25359	8620	0.41939977626316249371	0	1	729.56911199435126036	0	NaN	NaN	0	1	1	0	1	0
3	1	5	6	25288	323	0.41944606357719749212	0	1	957.6496770023368299	0	NaN	NaN	0	1	1	0	1	0
3	1	5	7	15883	7974	0.41949235927313566208	0	1	852.28192400245461613	0	NaN	NaN	0	1	1	0	1	0
3	1	5	8	49635	3060	0.41953865857794880867	0	1	1089.7547799977473915	0	NaN	NaN	0	1	1	0	1	0
3	1	5	9	23333	3271	0.41958495334256440401	0	1	1130.8224810054525733	0	NaN	NaN	0	1	1	0	1	0
3	1	5	10	62037	5081	0.41963125101756304502	0	1	960.19794500898569822	0	NaN	NaN	0	1	1	0	1	0
3	1	5	11	38663	4741	0.41972383542452007532	0	1	1233.2484870130429044	0	NaN	NaN	0	1	1	0	1	0
3	1	5	12	47316	1085	0.41977012983988970518	0	1	864.81440399074926972	0	NaN	NaN	0	1	1	0	1	0
3	1	5	13	32549	6570	0.41981641878373920918	0	1	1137.962624998181127	0	NaN	NaN	0	1	1	0	1	0
3	1	5	14	59308	4734	0.41986271832138299942	1	1	1181.3370529998792335	0	25	NaN	1	1	0	1	2	0
3	1	5	15	21602	265	0.41990901250392198563	1	1	1402.2843950078822672	0	18	NaN	1	1	0	1	2	0
3	1	5	16	32480	2980	0.41995530598796904087	1	1	1002.2588759893551469	0	116	119	1	1	0	1	2	0
3	1	5	17	3562	6150	0.42000159760937094688	0	1	902.05297600186895579	0	NaN	NaN	0	1	1	0	1	0
3	1	5	18	6559	66	0.4200478879502043128	0	1	802.54048999631777406	0	NaN	NaN	0	1	1	0	1	0
3	1	5	19	39000	5550	0.42009419295936822891	0	1	1016.5944159962236881	0	NaN	NaN	0	1	1	0	1	0
3	1	5	20	54386	6106	0.42014048330020159483	0	1	892.3086379945743829	0	NaN	NaN	0	1	1	0	1	0
3	1	5	21	63075	7973	0.42018677014857530594	1	1	891.9671760086202994	0	26	NaN	1	1	0	1	2	0
3	1	5	22	55329	4401	0.42023307201452553272	0	1	802.73418499564286321	0	NaN	NaN	0	1	1	0	1	0
3	1	5	23	49904	2727	0.42032566177658736706	0	1	931.61647699889726937	0	NaN	NaN	0	1	1	0	1	0
3	1	5	24	64566	6036	0.42037195409648120403	0	1	628.11489599698688835	0	NaN	NaN	0	1	1	0	1	0
3	1	5	25	48773	7741	0.4204182459507137537	0	1	833.52204300172161311	0	NaN	NaN	0	1	1	0	1	0
3	1	5	26	68333	2387	0.42046444572042673826	0	1	868.85039300250355154	0	NaN	NaN	0	1	1	0	1	0
3	1	5	27	13860	7130	0.42051073932088911533	0	0	2068.6342310073086992	0	NaN	NaN	0	0	0	1	2	0
3	1	5	28	39645	6647	0.42055703513324260712	0	1	707.40837798803113401	0	NaN	NaN	0	1	1	0	1	0
3	1	5	29	38481	5925	0.42060332896653562784	1	1	1472.338530991692096	0	118	NaN	1	1	0	1	2	0
3	1	5	30	22608	3686	0.42064961662981659174	0	1	803.32200600241776556	0	NaN	NaN	0	1	1	0	1	0
3	1	5	31	70336	970	0.42069591511972248554	1	0	1049.3348129966761917	0	153	NaN	1	0	1	0	1	0
3	1	5	32	16724	201	0.42074220266658812761	0	1	909.34915999241638929	0	NaN	NaN	0	1	1	0	1	0
3	1	5	33	12769	4687	0.42078849684912711382	1	0	871.44961800368037075	0	91	NaN	1	0	1	0	1	0
3	1	5	34	68333	2387	0.42088108416646718979	1	1	1185.2397469920106232	0	7	NaN	1	1	0	1	2	0
3	1	5	35	9054	6349	0.42092738556675612926	0	1	831.27036401128862053	0	NaN	NaN	0	1	1	0	1	0
3	1	5	36	20103	3457	0.4209736738121137023	1	1	1287.4844749894691631	0	85	NaN	1	1	0	1	2	0
3	1	5	37	69113	5237	0.42101996974088251591	0	1	1315.6062400084920228	0	NaN	NaN	0	1	1	0	1	0
3	1	5	38	69113	5237	0.4210662677651271224	1	1	819.57146700005978346	0	0	NaN	1	1	0	1	2	0
3	1	5	39	70574	5169	0.42111256590578705072	1	1	785.2993619890185073	0	180	222	1	1	0	1	2	0
3	1	5	40	1574	2284	0.4211588521720841527	0	1	911.11792899027932435	0	NaN	NaN	0	1	1	0	1	0
3	1	5	41	67075	4210	0.42120515147689729929	0	1	1146.18914999300614	0	NaN	NaN	0	1	1	0	1	0
3	1	5	42	7650	3597	0.4212514461250975728	0	1	1169.1037169948685914	0	NaN	NaN	0	1	1	0	1	0
3	1	5	43	46164	2768	0.42134403367526829243	0	1	1555.4752940079197288	0	NaN	NaN	0	1	1	0	1	0
3	1	5	44	26467	5714	0.42139032704290002584	0	1	1018.8255129905883223	0	NaN	NaN	0	1	1	0	1	0
3	1	5	45	61646	7852	0.42143662646412849426	1	1	911.51892900234088302	0	81	112	1	1	0	1	2	0
3	1	5	46	51457	9788	0.42148290935438126326	0	1	784.95264198863878846	0	NaN	NaN	0	1	1	0	1	0
3	1	5	47	11357	9094	0.42152921133674681187	0	1	1017.2638590011047199	0	NaN	NaN	0	1	1	0	1	0
3	1	5	48	26565	2607	0.42157549888361245394	0	1	1306.1534650041721761	0	NaN	NaN	0	1	1	0	1	0
3	1	5	49	21595	9272	0.42162180226296186447	0	1	838.14250701107084751	0	NaN	NaN	0	1	1	0	1	0
3	1	5	50	15929	5192	0.421668093535117805	0	1	802.02630600251723081	0	NaN	NaN	0	1	1	0	1	0
3	1	5	51	33987	7185	0.42171439121011644602	0	1	891.36123500065878034	0	NaN	NaN	0	1	1	0	1	0
3	1	5	52	33312	6581	0.42176057596225291491	0	1	1002.9871610022382811	0	NaN	NaN	0	1	1	0	1	0
3	1	5	53	57518	1492	0.42180687841027975082	0	1	1084.1537429951131344	0	NaN	NaN	0	1	1	0	1	0
3	1	5	54	12151	2196	0.42185317003168165684	0	1	803.8421320088673383	0	NaN	NaN	0	1	1	0	1	0
3	1	5	55	33135	7998	0.42194575746543705463	0	1	975.14177398988977075	0	NaN	NaN	0	1	1	0	1	0
3	1	5	56	40576	531	0.42199205595534294844	0	1	775.27188000385649502	0	NaN	NaN	0	1	1	0	1	0
3	1	5	57	40177	6520	0.42203835153486579657	0	1	870.12620200403034687	0	NaN	NaN	0	1	1	0	1	0
3	1	5	58	17975	3898	0.42208464129362255335	0	1	935.59873299091123044	0	NaN	NaN	0	1	1	0	1	0
3	1	5	59	47303	9743	0.42213093070313334465	0	1	622.87979500251822174	0	NaN	NaN	0	1	1	0	1	0
3	1	5	60	28595	2430	0.42217723315116018057	0	1	687.46773999009747058	0	NaN	NaN	0	1	1	0	1	0
3	1	5	61	18079	3694	0.42222352616954594851	1	1	2015.7742279989179224	0	214	NaN	1	1	0	1	2	0
3	1	5	62	45917	3548	0.42226981441490352154	1	1	1076.6880119917914271	0	103	NaN	1	1	0	1	2	0
3	1	5	63	31428	1939	0.42231610743328928947	0	1	747.14742800279054791	0	NaN	NaN	0	1	1	0	1	0
3	1	6	1	5412	1129	0.42401693796273320913	0	1	980.98867099906783551	0	NaN	NaN	0	1	1	0	1	0
3	1	6	2	69423	3996	0.42406324180774390697	0	1	602.43707399058621377	0	NaN	NaN	0	1	1	0	1	0
3	1	6	3	27061	5160	0.42410952690988779068	0	1	677.4225379922427237	0	NaN	NaN	0	1	1	0	1	0
3	1	6	4	47448	2539	0.42415582097601145506	0	0	2920.1659499958623201	1	NaN	NaN	0	0	1	1	2	0
3	1	6	5	68746	5155	0.42420211294665932655	0	1	902.34449200215749443	0	NaN	NaN	0	1	1	0	1	0
3	1	6	6	69906	3647	0.42424830829259008169	0	1	688.01343500672373921	0	NaN	NaN	0	1	1	0	1	0
3	1	6	7	45443	7233	0.42429460294079035521	0	1	687.20962399675045162	0	NaN	NaN	0	1	1	0	1	0
3	1	6	8	41307	5772	0.42434089875314384699	1	0	831.15783000539522618	0	234	NaN	1	0	1	0	1	0
3	1	6	9	47447	5761	0.42438718921039253473	0	1	726.62459600542206317	0	NaN	NaN	0	1	1	0	1	0
3	1	6	10	39779	9964	0.42443348607048392296	0	1	757.13499000994488597	0	NaN	NaN	0	1	1	0	1	0
3	1	6	11	71486	3903	0.42447977804113179445	0	1	1767.7416750084375963	0	NaN	NaN	0	1	1	0	1	0
3	1	6	12	25524	9657	0.42452607094310224056	0	1	823.3738380076829344	0	NaN	NaN	0	1	1	0	1	0
3	1	6	13	44112	1808	0.42461865744553506374	0	1	672.89896500005852431	0	NaN	NaN	0	1	1	0	1	0
3	1	6	14	72768	3036	0.42466494964901357889	0	1	640.29074800782836974	0	NaN	NaN	0	1	1	0	1	0
3	1	6	15	54887	9484	0.4247112529119476676	0	1	833.15647700510453433	0	NaN	NaN	0	1	1	0	1	0
3	1	6	16	4844	4025	0.42475754499901086092	1	1	846.46057800273410976	0	155	156	1	1	0	1	2	0
3	1	6	17	34166	6068	0.42480384127702564001	0	1	1024.1187180072301999	0	NaN	NaN	0	1	1	0	1	0
3	1	6	18	59924	5418	0.42485013569239526987	0	1	1001.6486620006617159	0	NaN	NaN	0	1	1	0	1	0
3	1	6	19	2139	4005	0.42489642859436571598	0	1	745.23394499556161463	0	NaN	NaN	0	1	1	0	1	0
3	1	6	20	21259	9960	0.42494272335898131132	0	1	772.27884499006904662	0	NaN	NaN	0	1	1	0	1	0
3	1	6	21	53670	6726	0.4249890143983066082	1	1	1024.8492230020929128	0	193	NaN	1	1	0	1	2	0
3	1	6	22	50520	2504	0.42503531521651893854	0	0	1008.93850700231269	0	NaN	NaN	0	0	0	1	2	0
3	1	6	23	63104	2735	0.42512790381442755461	0	1	1072.1243349980795756	0	NaN	NaN	0	1	1	0	1	0
3	1	6	24	585	8174	0.4251741940388455987	0	1	779.36092599702533334	0	NaN	NaN	0	1	1	0	1	0
3	1	6	25	50162	7260	0.42522048053797334433	0	1	845.18135299731511623	0	NaN	NaN	0	1	1	0	1	0
3	1	6	26	39520	5558	0.42526678275316953659	0	1	955.22987400181591511	0	NaN	NaN	0	1	1	0	1	0
3	1	6	27	53123	7780	0.42531307716853916645	0	1	1313.6720110051101074	0	NaN	NaN	0	1	1	0	1	0
3	1	6	28	29754	1014	0.42535936168860644102	0	1	1283.4026420023292303	0	NaN	NaN	0	1	2	0	1	0
3	1	6	29	67703	3638	0.42540566250681877136	0	1	1172.6117200014414266	0	NaN	NaN	0	1	1	0	1	0
3	1	6	30	51314	6843	0.42545196146238595247	1	1	1019.4034689920954406	0	240	NaN	1	1	0	1	2	0
3	1	6	31	22928	9313	0.425498155876994133	0	1	1702.8047779895132408	0	NaN	NaN	0	1	1	0	1	0
3	1	6	32	26893	1702	0.42554445099085569382	0	1	1020.6131119921337813	0	NaN	NaN	0	1	1	0	1	0
3	1	6	33	45596	616	0.42559074750170111656	0	1	872.73288000142201781	0	NaN	NaN	0	1	1	0	1	0
3	1	6	34	5404	3640	0.42563703889027237892	0	1	1002.1403060090960935	0	NaN	NaN	0	1	1	0	1	0
3	1	6	35	46748	8318	0.42572962702251970768	0	1	1287.7997100003995001	0	NaN	NaN	0	1	1	0	1	0
3	1	6	36	71078	9017	0.42577592143788933754	0	1	854.31825100386049598	0	NaN	NaN	0	1	1	0	1	0
3	1	6	37	48513	9347	0.42582221818156540394	0	0	1377.2439389867940918	0	NaN	NaN	0	0	0	1	2	0
3	1	6	38	2153	5238	0.42586850887164473534	0	1	879.92537800164427608	0	NaN	NaN	0	1	1	0	1	0
3	1	6	39	56411	6246	0.42591480538249015808	0	1	1006.9028519938001409	0	NaN	NaN	0	1	1	0	1	0
3	1	6	40	32274	3194	0.42596110061276704073	1	1	1178.8904360000742599	0	158	NaN	1	1	0	1	2	0
3	1	6	41	53053	727	0.42600738455075770617	1	1	883.71424199431203306	0	297	NaN	1	1	0	1	2	0
3	1	6	42	992	6311	0.42605368676595389843	0	1	1117.527749011060223	0	NaN	NaN	0	1	1	0	1	0
3	1	6	43	11094	8935	0.42609997617546468973	1	0	1072.881763000623323	0	189	NaN	1	0	1	0	1	0
3	1	6	44	9918	116	0.42619256745092570782	0	1	1647.5701390008907765	0	NaN	NaN	0	1	1	0	1	0
3	1	6	45	61431	2297	0.42623885825742036104	0	1	1443.7034399888943881	0	NaN	NaN	0	1	1	0	1	0
3	1	6	46	69439	3293	0.42628515162505209446	0	1	1281.5748889988753945	0	NaN	NaN	0	1	1	0	1	0
3	1	6	47	26599	351	0.4263314537238329649	0	1	821.08035699639003724	0	NaN	NaN	0	1	1	0	1	0
3	1	6	48	10317	2336	0.42637774522881954908	0	1	767.10652900510467589	0	NaN	NaN	0	1	1	0	1	0
3	1	6	49	21602	265	0.42642404453363269567	1	1	917.4669209896819666	0	96	115	1	1	0	1	2	0
3	1	6	50	42733	9949	0.42647032730747014284	1	1	881.6843050008174032	0	143	NaN	1	1	0	1	2	0
3	1	6	51	59924	5418	0.42651662800926715136	1	1	909.23630699398927391	0	32	NaN	1	1	0	1	2	0
3	1	6	52	13601	6017	0.42656292545143514872	0	1	1082.3517809913028032	0	NaN	NaN	0	1	1	0	1	0
3	1	6	53	64048	8280	0.42665550997480750084	0	0	1026.3206169911427423	0	NaN	NaN	0	0	0	1	2	0
3	1	6	54	56500	9965	0.42670179624110460281	0	1	1076.3190049910917878	0	NaN	NaN	0	1	1	0	1	0
3	1	6	55	22032	8516	0.426748099853284657	0	1	2060.6247060059104115	0	NaN	NaN	0	1	1	0	1	0
3	1	6	56	72172	8054	0.42679432115983217955	1	1	2977.6207389950286597	1	126	227	1	1	1	1	2	0
3	1	6	57	42166	1266	0.42684061860200017691	1	1	983.5267269954783842	0	144	237	1	1	0	1	2	0
3	1	6	58	26174	8093	0.42688692582305520773	0	1	756.4576440054224804	0	NaN	NaN	0	1	1	0	1	0
3	1	6	59	62538	8498	0.4269332267576828599	0	1	1165.6270590028725564	0	NaN	NaN	0	1	1	0	1	0
3	1	6	60	41220	2469	0.42697951197624206543	1	0	667.38364199409261346	0	127	NaN	1	0	1	0	1	0
3	1	6	61	60306	830	0.42702581931371241808	0	1	843.98348401009570807	0	NaN	NaN	0	1	1	0	1	0
3	1	6	62	38357	6274	0.42707211710512638092	1	1	868.94677000236697495	0	224	NaN	1	1	0	1	2	0
3	1	7	1	585	8174	0.42871856281999498606	1	1	1108.7223310023546219	0	38	NaN	1	1	0	1	2	0
3	1	7	2	2085	4615	0.42876486037857830524	0	1	838.36844300094526261	0	NaN	NaN	0	1	1	0	1	0
3	1	7	3	14194	2736	0.42881115933414548635	0	1	863.91868699865881354	0	NaN	NaN	0	1	1	0	1	0
3	1	7	4	52657	5200	0.42885745596140623093	1	1	2214.1337820066837594	1	291	NaN	1	1	1	1	2	0
3	1	7	5	9493	2330	0.42890375142451375723	0	1	660.12615499494131655	0	NaN	NaN	0	1	1	0	1	0
3	1	7	6	19337	4470	0.42895005154423415661	0	1	961.13776900165248662	0	NaN	NaN	0	1	1	0	1	0
3	1	7	7	25730	4068	0.42899633280467242002	1	1	1579.9190359975909814	0	304	NaN	1	1	0	1	2	0
3	1	7	8	29481	5858	0.42904265038669109344	0	1	781.5451540081994608	0	NaN	NaN	0	1	1	0	1	0
3	1	7	9	48560	1538	0.42908892547711730003	1	0	719.6375250059645623	0	300	NaN	1	0	1	0	1	0
3	1	7	10	26428	6560	0.42918151663616299629	0	1	685.65655600104946643	0	NaN	NaN	0	1	1	0	1	0
3	1	7	11	11087	8283	0.42922782839741557837	0	1	772.89245200518053025	0	NaN	NaN	0	1	1	0	1	0
3	1	7	12	27061	5160	0.42927410476841032505	1	0	882.71417999931145459	0	70	NaN	1	0	1	0	1	0
3	1	7	13	69439	3293	0.42932042386382818222	1	1	840.66335399984382093	0	28	NaN	1	1	0	1	2	0
3	1	7	14	38105	5965	0.42936668870970606804	1	1	934.40987900248728693	0	218	NaN	1	1	0	1	2	0
3	1	7	15	43152	2408	0.42941301839891821146	0	1	3139.5766640052897856	0	NaN	NaN	0	1	1	0	1	0
3	1	7	16	71019	9667	0.42945927742403000593	1	1	921.16958100814372301	0	214	NaN	1	1	0	1	2	0
3	1	7	17	65145	1866	0.4295056159608066082	1	1	1348.1975330068962649	0	222	NaN	1	1	0	1	2	0
3	1	7	18	51245	3342	0.42955187021289020777	0	1	1102.1238419925794005	0	NaN	NaN	0	1	1	0	1	0
3	1	7	19	29754	1014	0.42959821305703371763	1	1	1332.2025200031930581	0	52	NaN	1	1	0	1	2	0
3	1	7	20	15173	7951	0.42969081120099872351	0	1	1658.7221160007175058	0	NaN	NaN	0	1	1	0	1	0
3	1	7	21	55281	4784	0.4297370413551107049	0	1	1091.09909700055141	0	NaN	NaN	0	1	1	0	1	0
3	1	7	22	58517	5660	0.42978340480476617813	0	1	978.71336099342443049	0	NaN	NaN	0	1	1	0	1	0
3	1	7	23	9534	8315	0.42982962541282176971	0	1	1260.8372899994719774	0	NaN	NaN	0	1	1	0	1	0
3	1	7	24	30645	1098	0.42987599910702556372	0	1	702.69783100229687989	0	NaN	NaN	0	1	1	0	1	0
3	1	7	25	13910	1431	0.42992222192697227001	0	0	1665.0820790091529489	0	NaN	NaN	0	0	0	1	2	0
3	1	7	26	29481	5858	0.4299685946898534894	1	1	834.79040900419931859	0	17	NaN	1	1	0	1	2	0
3	1	7	27	14653	2848	0.43001481052488088608	0	1	959.93037700827699155	0	NaN	NaN	0	1	1	0	1	0
3	1	7	28	4787	36	0.43006111739668995142	0	1	879.74667899834457785	0	NaN	NaN	0	1	1	0	1	0
3	1	7	29	54500	6866	0.43010739306919276714	0	1	858.66048900061286986	0	NaN	NaN	0	1	1	0	1	0
3	1	7	30	30645	1098	0.43015370471403002739	1	1	859.73440999805461615	0	5	NaN	1	1	0	1	2	0
3	1	7	31	9534	8315	0.43019998772069811821	1	1	1122.6714929944137111	0	7	NaN	1	1	0	1	2	0
3	1	7	32	30732	5663	0.43024628853891044855	0	1	789.03892700327560306	0	NaN	NaN	0	1	1	0	1	0
3	1	7	33	49613	2218	0.43029257957823574543	0	1	1489.4883990054950118	0	NaN	NaN	0	1	1	0	1	0
3	1	7	34	29481	5858	0.43038516305387020111	1	1	1068.5099470138084143	0	7	25	1	1	0	1	2	0
3	1	7	35	21595	9272	0.43043147213757038116	1	1	1376.1975249944953248	0	110	NaN	1	1	0	1	2	0
3	1	7	36	3259	8216	0.4304777547949925065	0	1	928.04580199299380183	0	NaN	NaN	0	1	1	0	1	0
3	1	7	37	20274	7520	0.43052404990885406733	0	1	882.16888699389528483	0	NaN	NaN	0	1	1	0	1	0
3	1	7	38	47787	5919	0.43057024432346224785	0	1	1229.4857030065031722	0	NaN	NaN	0	1	1	0	1	0
3	1	7	39	8912	2451	0.43061653536278754473	0	1	834.99971500714309514	0	NaN	NaN	0	1	1	0	1	0
3	1	7	40	21016	9575	0.4306628276826813817	0	1	902.82705199206247926	0	NaN	NaN	0	1	1	0	1	0
3	1	7	41	9493	2330	0.43070911744143813848	1	1	1133.2625109935179353	0	35	NaN	1	1	0	1	2	0
3	1	7	42	40833	7310	0.430755418143235147	0	1	888.76827700005378574	0	NaN	NaN	0	1	1	0	1	0
3	1	7	43	40409	8175	0.43080171628389507532	0	0	1738.1195599882630631	0	NaN	NaN	0	0	0	1	2	0
3	1	7	44	60038	2259	0.43084800080396234989	1	1	1274.6970969892572612	0	274	NaN	1	1	0	1	2	0
3	1	7	45	55329	4401	0.43089430080726742744	1	1	1203.4229100099764764	0	147	NaN	1	1	0	1	2	0
3	1	7	46	57359	3902	0.43098688358440995216	1	0	804.59718400379642844	0	396	NaN	1	0	1	0	1	0
3	1	7	47	72599	9335	0.43103317625354975462	0	1	1052.0267069950932637	0	NaN	NaN	0	1	1	0	1	0
3	1	7	48	53665	2760	0.43107947777025401592	0	1	814.44708400522358716	0	NaN	NaN	0	1	1	0	1	0
3	1	7	49	13601	6017	0.43112577032297849655	1	1	1122.143172993673943	0	58	NaN	1	1	0	1	2	0
3	1	7	50	11821	8170	0.4311720716068521142	0	1	782.3237770062405616	0	NaN	NaN	0	1	1	0	1	0
3	1	7	51	60764	5262	0.43121835670899599791	0	1	817.96466698870062828	0	NaN	NaN	0	1	1	0	1	0
3	1	7	52	60764	5262	0.43126465682871639729	1	1	853.73679699841886759	0	0	NaN	1	1	0	1	2	0
3	1	7	53	10317	2336	0.4313109441427513957	1	1	965.99855099339038134	0	66	NaN	1	1	0	1	2	0
3	1	7	54	23173	3862	0.43135724321473389864	0	1	673.91179299738723785	0	NaN	NaN	0	1	1	0	1	0
3	1	7	55	8357	8482	0.43144983251113444567	0	1	1102.3907740018330514	0	NaN	NaN	0	1	1	0	1	0
3	1	7	56	23283	9525	0.43149612576235085726	0	1	790.6517789961071685	0	NaN	NaN	0	1	1	0	1	0
3	1	7	57	32481	3450	0.43154242029413580894	0	1	743.2402159902267158	0	NaN	NaN	0	1	1	0	1	0
3	1	7	58	12150	6692	0.43158871761988848448	1	0	1102.3854670056607574	0	254	NaN	1	0	1	0	1	0
3	1	7	59	19182	230	0.43163500167429447174	0	1	1471.2000430008629337	0	NaN	NaN	0	1	1	0	1	0
3	1	7	60	16861	5967	0.43168129667174071074	0	1	709.7669710055924952	0	NaN	NaN	0	1	1	0	1	0
3	1	7	61	196	7856	0.43172759655863046646	0	1	751.80608700611628592	0	NaN	NaN	0	1	1	0	1	0
3	1	7	62	23306	8586	0.43177379330154508352	0	1	777.57614100119099021	0	NaN	NaN	0	1	1	0	1	0
3	1	7	63	13860	7130	0.43182008911389857531	1	0	1484.8859299963805825	0	160	NaN	1	0	1	0	1	0
3	1	8	1	57894	8109	0.43380800902377814054	0	1	1122.3714140069205314	0	NaN	NaN	0	1	1	0	1	0
3	1	8	2	6559	66	0.43385430029593408108	1	0	986.63103699800558388	0	171	NaN	1	0	1	0	1	0
3	1	8	3	72081	992	0.43390060181263834238	0	1	821.35367400769609958	0	NaN	NaN	0	1	1	0	1	0
3	1	8	4	9729	2986	0.43394690344575792551	0	1	657.21147699514403939	0	NaN	NaN	0	1	1	0	1	0
3	1	8	5	40218	1192	0.43399318994488567114	0	1	702.54925699555315077	0	NaN	NaN	0	1	1	0	1	0
3	1	8	6	57449	5568	0.43403948168270289898	0	1	672.95964299410115927	0	NaN	NaN	0	1	1	0	1	0
3	1	8	7	46341	2203	0.43408577342052012682	0	1	980.66447100427467376	0	NaN	NaN	0	1	1	0	1	0
3	1	8	8	33987	7185	0.43413207295816391706	1	1	1026.6541499877348542	0	144	NaN	1	1	0	1	2	0
3	1	8	9	32647	4001	0.43417836644221097231	0	1	1186.722594007733278	0	NaN	NaN	0	1	1	0	1	0
3	1	8	10	47309	4285	0.43427094537764787674	1	1	1131.5484060032758862	0	261	NaN	1	1	0	1	2	0
3	1	8	11	36068	475	0.43431724596302956343	0	1	773.50339399708900601	0	NaN	NaN	0	1	1	0	1	0
3	1	8	12	11023	7336	0.43436353467404842377	1	0	1191.3264969916781411	0	323	NaN	1	0	1	0	1	0
3	1	8	13	32749	1800	0.43440983956679701805	0	1	760.11649500287603587	0	NaN	NaN	0	1	1	0	1	0
3	1	8	14	10598	9121	0.43445613153744488955	1	0	989.08860600204207003	0	239	NaN	1	0	1	0	1	0
3	1	8	15	70521	7428	0.43450242280960083008	0	1	692.44026900560129434	0	NaN	NaN	0	1	1	0	1	0
3	1	8	16	30732	5663	0.43454871396534144878	1	1	1268.874460001825355	0	46	NaN	1	1	0	1	2	0
3	1	8	17	35813	6579	0.43459501839242875576	0	1	1123.1073099916102365	0	NaN	NaN	0	1	1	0	1	0
3	1	8	18	47674	7917	0.43464129639323800802	0	1	747.36918898997828364	0	NaN	NaN	0	1	1	0	1	0
3	1	8	19	19809	3756	0.43468760186806321144	1	0	981.38607900182250887	0	219	NaN	1	0	1	0	1	0
3	1	8	20	54386	6106	0.43478019721806049347	1	0	1071.7142619978403673	0	187	NaN	1	0	1	0	1	0
3	1	8	21	26607	2186	0.43482648103963583708	0	1	807.99724599637556821	0	NaN	NaN	0	1	1	0	1	0
3	1	8	22	2085	4615	0.43487278278917074203	1	1	1113.1681349943391979	0	82	NaN	1	1	0	1	2	0
3	1	8	23	14007	4306	0.4349190595094114542	0	1	1110.6841270084260032	0	NaN	NaN	0	1	1	0	1	0
3	1	8	24	13375	5523	0.43496536812745034695	0	1	739.36013800266664475	0	NaN	NaN	0	1	1	0	1	0
3	1	8	25	15883	7974	0.43501164787448942661	1	1	2002.6433390012243763	0	205	NaN	1	1	0	1	2	0
3	1	8	26	57918	1196	0.43505794100929051638	0	1	703.92486800847109407	0	NaN	NaN	0	1	1	0	1	0
3	1	8	27	51199	9718	0.43510423717088997364	1	1	1033.6884760035900399	0	317	NaN	1	1	0	1	2	0
3	1	8	28	18781	9244	0.43515055591706186533	0	1	982.42113000014796853	0	NaN	NaN	0	1	1	0	1	0
3	1	8	29	44236	2604	0.43519683054182678461	0	1	1871.8422050005756319	0	NaN	NaN	0	1	1	0	1	0
3	1	8	30	60087	4793	0.43524312064982950687	0	1	762.65463999880012125	0	NaN	NaN	0	1	1	0	1	0
3	1	8	31	71754	988	0.43533570331055670977	0	0	1426.9220099959056824	0	NaN	NaN	0	0	0	1	2	0
3	1	8	32	43285	5894	0.43538200622424483299	0	1	862.09111700009088963	0	NaN	NaN	0	1	1	0	1	0
3	1	8	33	61557	1732	0.43542829842772334814	0	1	774.00437500909902155	0	NaN	NaN	0	1	1	0	1	0
3	1	8	34	42473	6066	0.4354745958698913455	0	1	845.01899300084915012	0	NaN	NaN	0	1	1	0	1	0
3	1	8	35	9419	7020	0.43552078830543905497	0	1	985.93452200293540955	0	NaN	NaN	0	1	1	0	1	0
3	1	8	36	11946	9798	0.43556708062533289194	0	1	716.37551599997095764	0	NaN	NaN	0	1	1	0	1	0
3	1	8	37	63909	1771	0.43561337736900895834	0	1	704.33332599350251257	0	NaN	NaN	0	1	1	0	1	0
3	1	8	38	4067	5382	0.43565967935137450695	0	1	834.97751299000810832	0	NaN	NaN	0	1	1	0	1	0
3	1	8	39	24352	8917	0.43570596969220787287	0	1	1392.9218900011619553	0	NaN	NaN	0	1	1	0	1	0
3	1	8	40	992	6311	0.43575226771645247936	1	1	1244.7610609960975125	0	122	NaN	1	1	0	1	2	0
3	1	8	41	13691	5514	0.43579856108408421278	0	1	806.83377099921926856	0	NaN	NaN	0	1	1	0	1	0
3	1	8	42	42512	3924	0.43589114653877913952	0	1	1086.182842991547659	0	NaN	NaN	0	1	1	0	1	0
3	1	8	43	44236	2604	0.43593743850942701101	1	1	1015.2813210006570444	0	13	NaN	1	1	0	1	2	0
3	1	8	44	40218	1192	0.43598372768610715866	1	1	813.25036399357486516	0	38	NaN	1	1	0	1	2	0
3	1	8	45	47754	2755	0.43603002827148884535	0	1	855.98926099191885442	0	NaN	NaN	0	1	1	0	1	0
3	1	8	46	14849	9761	0.43607631989289075136	0	1	1021.4615489967400208	0	NaN	NaN	0	1	1	0	1	0
3	1	8	47	44495	1968	0.4361226159380748868	0	1	1052.5510369916446507	0	NaN	NaN	0	1	1	0	1	0
3	1	8	48	18128	7559	0.43616891209967434406	1	1	1380.6842240010155365	0	268	NaN	1	1	0	1	2	0
3	1	8	49	57717	1551	0.43621520232409238815	0	1	739.65352299273945391	0	NaN	NaN	0	1	1	0	1	0
3	1	8	50	66945	6666	0.43626149371266365051	1	1	1281.4331160043366253	0	336	NaN	1	1	0	1	2	0
3	1	8	51	11821	8170	0.43630779313389211893	1	1	1068.5581729921977967	0	63	NaN	1	1	0	1	2	0
3	1	8	52	19809	3756	0.43635409045964479446	1	1	815.59986399952322245	0	32	252	1	1	0	1	2	0
3	1	8	53	59629	2262	0.43640038080047816038	0	1	785.76919100305531174	0	NaN	NaN	0	1	1	0	1	0
3	1	8	54	55281	4784	0.43644667742773890495	1	1	783.5568970040185377	0	95	NaN	1	1	0	1	2	0
3	1	8	55	26467	5714	0.43653926486149430275	1	0	2457.0224140043137595	0	198	NaN	1	0	1	0	1	0
3	1	8	56	60119	1108	0.43658556195441633463	1	1	773.25575301074422896	0	279	389	1	1	0	1	2	0
3	1	8	57	31361	1224	0.43663185229524970055	0	1	808.55200299993157387	0	NaN	NaN	0	1	1	0	1	0
3	1	8	58	24569	9934	0.43667814705986529589	0	1	1036.4881820132723078	0	NaN	NaN	0	1	1	0	1	0
3	1	8	59	32260	1317	0.43672443961258977652	0	1	840.1393700041808188	0	NaN	NaN	0	1	1	0	1	0
3	1	8	60	58145	805	0.43677073484286665916	0	1	591.1012300057336688	0	NaN	NaN	0	1	1	0	1	0
3	1	8	61	47453	5274	0.43681692460086196661	0	1	862.95211200194898993	0	NaN	NaN	0	1	1	0	1	0
3	1	8	62	48228	5350	0.43686322576832026243	0	1	703.38830300897825509	0	NaN	NaN	0	1	1	0	1	0
3	1	9	1	59629	2262	0.43937116046436131001	1	1	1402.8944199963007122	0	9	NaN	1	1	0	1	2	0
3	1	9	2	56411	6246	0.4394174645422026515	1	0	709.34692599985282868	0	149	NaN	1	0	1	0	1	0
3	1	9	3	21595	9272	0.43946374254301190376	1	1	911.64990099787246436	0	92	203	1	1	0	1	2	0
3	1	9	4	38663	4741	0.4395100506953895092	1	1	1102.6392380008473992	0	242	NaN	1	1	0	1	2	0
3	1	9	5	11943	145	0.43955633987206965685	0	1	1262.1607059991220012	0	NaN	NaN	0	1	1	0	1	0
3	1	9	6	39452	6367	0.43960263335611671209	0	1	1201.3739469985011965	0	NaN	NaN	0	1	1	0	1	0
3	1	9	7	45917	3548	0.43964892812073230743	1	1	823.95765600085724145	0	194	298	1	1	0	1	2	0
3	1	9	8	58522	2752	0.43969523161649703979	0	1	801.69862799812108278	0	NaN	NaN	0	1	1	0	1	0
3	1	9	9	19182	230	0.43974150659050792456	1	1	2657.6538790104677901	1	74	NaN	1	1	1	1	2	0
3	1	9	10	31326	9922	0.43978781613986939192	0	1	831.00507300696335733	0	NaN	NaN	0	1	1	0	1	0
3	1	9	11	15513	5889	0.43983410275541245937	0	1	1051.8872869870392606	0	NaN	NaN	0	1	1	0	1	0
3	1	9	12	68969	2377	0.43988039868418127298	0	1	1127.7932259981753305	0	NaN	NaN	0	1	1	0	1	0
3	1	9	13	57518	1492	0.43992669053841382265	1	1	802.92238500260282308	0	209	NaN	1	1	0	1	2	0
3	1	9	14	32274	3194	0.44001927936915308237	1	1	1062.3412339919013903	0	160	319	1	1	0	1	2	0
3	1	9	15	31993	1899	0.44006558542605489492	0	1	949.1124939959263429	0	NaN	NaN	0	1	1	0	1	0
3	1	9	16	7651	9049	0.44011186307761818171	0	1	777.57236899924464524	0	NaN	NaN	0	1	1	0	1	0
3	1	9	17	62037	5081	0.44015815912280231714	1	0	844.94323500257451087	0	256	NaN	1	0	1	0	1	0
3	1	9	18	585	8174	0.44020444783382117748	1	1	816.24922000628430396	0	141	180	1	1	0	1	2	0
3	1	9	19	20502	1624	0.44025074073579162359	0	1	737.28973900142591447	0	NaN	NaN	0	1	1	0	1	0
3	1	9	20	38818	511	0.44029704458080232143	0	1	1067.4507689982419834	0	NaN	NaN	0	1	1	0	1	0
3	1	9	21	9640	4420	0.44034333457238972187	0	1	884.56167100230231881	0	NaN	NaN	0	1	2	0	1	0
3	1	9	22	28513	5745	0.4403896288713440299	0	1	1077.1553109952947125	0	NaN	NaN	0	1	1	0	1	0
3	1	9	23	11347	3492	0.4404359268955886364	0	1	1320.8199670043541119	0	NaN	NaN	0	1	1	0	1	0
3	1	9	24	66490	919	0.44048221840057522058	0	1	1116.387787988060154	0	NaN	NaN	0	1	1	0	1	0
3	1	9	25	19527	5733	0.44057470455300062895	0	1	940.73486400884576142	0	NaN	NaN	0	1	1	0	1	0
3	1	9	26	8553	8542	0.44062100537121295929	0	1	1233.1518709979718551	0	NaN	NaN	0	1	1	0	1	0
3	1	9	27	36738	2220	0.44066729012411087751	0	1	1176.1812949989689514	0	NaN	NaN	0	1	1	0	1	0
3	1	9	28	71233	984	0.44071359513327479362	0	1	660.135719008394517	0	NaN	NaN	0	1	1	0	1	0
3	1	9	29	35049	7057	0.44075988337863236666	0	1	661.0983430000487715	0	NaN	NaN	0	1	1	0	1	0
3	1	9	30	41940	5896	0.44080618256703019142	0	1	728.90492599981371313	0	NaN	NaN	0	1	1	0	1	0
3	1	9	31	53414	7390	0.44085248059127479792	0	1	1124.5379699976183474	0	NaN	NaN	0	1	1	0	1	0
3	1	9	32	38672	5139	0.44089876662474125624	0	1	762.50050700036808848	0	NaN	NaN	0	1	1	0	1	0
3	1	9	33	42892	2320	0.44094506837427616119	0	1	642.95759900414850563	0	NaN	NaN	0	1	1	0	1	0
3	1	9	34	25539	6169	0.44099136034492403269	0	1	717.55814699281472713	0	NaN	NaN	0	1	1	0	1	0
3	1	9	35	53207	4523	0.44103764696046710014	1	1	681.19358799594920129	0	522	NaN	1	1	0	1	2	0
3	1	9	36	15655	7240	0.4411302394000813365	0	1	907.41977198922540992	0	NaN	NaN	0	1	1	0	1	0
3	1	9	37	61671	6069	0.4411765361437574029	0	1	1221.082678996026516	0	NaN	NaN	0	1	1	0	1	0
3	1	9	38	17494	6817	0.44122283451724797487	0	1	701.01986000372562557	0	NaN	NaN	0	1	1	0	1	0
3	1	9	39	42892	2320	0.44126911659259349108	1	0	1690.6563320080749691	0	5	NaN	1	0	1	0	1	0
3	1	9	40	16243	3951	0.44131541834212839603	1	0	1084.8674739972921088	0	291	NaN	1	0	1	0	1	0
3	1	9	41	24956	7568	0.4413617132231593132	0	1	1158.7391799985198304	0	NaN	NaN	0	1	1	0	1	0
3	1	9	42	64733	7447	0.44140801043249666691	0	1	3312.1989809878868982	0	NaN	NaN	0	1	1	0	1	0
3	1	9	43	61220	6540	0.44145429902710020542	0	1	1002.3390819987980649	0	NaN	NaN	0	1	1	0	1	0
3	1	9	44	25827	2255	0.44150059553794562817	0	1	780.21805599564686418	0	NaN	NaN	0	1	1	0	1	0
3	1	9	45	40366	9088	0.44159318401943892241	0	1	1136.5143250004621223	0	NaN	NaN	0	1	1	0	1	0
3	1	9	46	24187	9124	0.44163947622291743755	0	1	547.7163519972236827	0	NaN	NaN	0	1	1	0	1	0
3	1	9	47	69439	3293	0.44168576435185968876	1	1	928.62756999966222793	0	158	187	1	1	0	1	2	0
3	1	9	48	14149	2821	0.44173206598497927189	0	1	738.1353280070470646	0	NaN	NaN	0	1	1	0	1	0
3	1	9	49	46421	4095	0.44177836133167147636	0	1	773.48474499012809247	0	NaN	NaN	0	1	1	0	1	0
3	1	9	50	15003	4751	0.44182465330231934786	1	0	1705.8753369929036126	0	328	NaN	1	0	1	0	1	0
3	1	9	51	47754	2755	0.44187084841541945934	1	1	2121.3984469941351563	0	67	NaN	1	1	0	1	2	0
3	1	9	52	54675	7655	0.44191714969929307699	0	1	664.82205600186716765	0	NaN	NaN	0	1	1	0	1	0
3	1	9	53	27130	3807	0.4419634395744651556	0	1	637.72636299836449325	0	NaN	NaN	0	1	1	0	1	0
3	1	9	54	20103	3457	0.44200973352417349815	1	1	1213.9160819933749735	0	267	353	1	1	0	1	2	0
3	1	9	55	57894	8109	0.4421023237518966198	1	1	2285.1727379893418401	1	115	NaN	1	1	1	1	2	0
3	1	9	56	37938	6054	0.44214861630462110043	0	1	803.32500100485049188	0	NaN	NaN	0	1	1	0	1	0
3	1	9	57	21927	9508	0.44219490536488592625	0	1	626.85245199827477336	0	NaN	NaN	0	1	1	0	1	0
3	1	9	58	45424	3768	0.44224120560102164745	0	1	1554.6447509987046942	0	NaN	NaN	0	1	1	0	1	0
3	1	9	59	24603	6410	0.44228750176262110472	0	1	849.95243199227843434	0	NaN	NaN	0	1	1	0	1	0
3	1	9	60	34822	2328	0.44233378604985773563	0	1	702.47140800347551703	0	NaN	NaN	0	1	1	0	1	0
3	1	9	61	27130	3807	0.44238008104730397463	1	1	856.99967799882870167	0	7	NaN	1	1	0	1	2	0
3	1	9	62	64956	7697	0.44242638116702437401	0	1	719.76517199072986841	0	NaN	NaN	0	1	1	0	1	0
3	1	9	63	15070	8816	0.44247266801539808512	0	1	671.87588399974629283	0	NaN	NaN	0	1	1	0	1	0
3	1	10	1	34917	3444	0.44407443981617689133	1	0	1773.958636011229828	0	314	482	1	0	1	0	1	0
3	1	10	2	44214	7744	0.44412073621060699224	0	1	672.05892900528851897	0	NaN	NaN	0	1	1	0	1	0
3	1	10	3	54386	6106	0.44416703202296048403	1	1	1342.7926889999071136	0	107	295	1	1	0	1	2	0
3	1	10	4	1448	1126	0.44421332597266882658	0	1	2037.1391880034934729	0	NaN	NaN	0	1	1	0	1	0
3	1	10	5	50182	7339	0.44425961922388523817	0	1	744.95411099633201957	0	NaN	NaN	0	1	1	0	1	0
3	1	10	6	9764	2913	0.44430591596756130457	0	1	753.11453601170796901	0	NaN	NaN	0	1	1	0	1	0
3	1	10	7	70355	7572	0.44435220165178179741	0	1	1539.4235260027926415	0	NaN	NaN	0	1	1	0	1	0
3	1	10	8	22032	8516	0.44439850747585296631	1	0	1607.7955429936992005	0	202	NaN	1	0	1	0	1	0
3	1	10	9	72775	6139	0.44444479176308959723	0	1	682.66313300409819931	0	NaN	NaN	0	1	1	0	1	0
3	1	10	10	32887	9261	0.44453737325966358185	0	1	733.72040300455410033	0	NaN	NaN	0	1	1	0	1	0
3	1	10	11	9534	8315	0.44458368932828307152	1	1	1409.9187649990199134	0	167	175	1	1	0	1	2	0
3	1	10	12	3627	14	0.44462996441870927811	0	1	861.84248099743854254	0	NaN	NaN	0	1	1	0	1	0
3	1	10	13	58517	5660	0.44467626861296594143	1	1	1102.8292269911617041	0	178	NaN	1	1	0	1	2	0
3	1	10	14	12150	6692	0.44472255825530737638	1	1	875.80923200584948063	0	143	398	1	1	0	1	2	0
3	1	10	15	18281	4211	0.44476885616313666105	0	0	1134.3633360083913431	0	NaN	NaN	0	0	0	1	2	0
3	1	10	16	18140	9571	0.44481513858772814274	0	1	949.36799799324944615	0	NaN	NaN	0	1	1	0	1	0
3	1	10	17	62727	9570	0.44486144953407347202	0	1	661.26741000334732234	0	NaN	NaN	0	1	1	0	1	0
3	1	10	18	72685	4400	0.44490774068981409073	0	1	773.63290799257811159	0	NaN	NaN	0	1	1	0	1	0
3	1	10	19	13555	8200	0.4449540342902764678	0	1	665.31005399883724749	0	NaN	NaN	0	1	1	0	1	0
3	1	10	20	63600	5345	0.44500031776260584593	0	1	774.30606599955353886	0	NaN	NaN	0	1	1	0	1	0
3	1	10	21	66532	4585	0.44509291008580476046	0	0	2080.8394709893036634	0	NaN	NaN	0	0	0	1	2	0
3	1	10	22	62037	5081	0.44513919763267040253	1	1	1041.9906139868544415	0	67	324	1	1	0	1	2	0
3	1	10	23	34042	7247	0.4451854899525642395	0	1	985.14753699419088662	0	NaN	NaN	0	1	1	0	1	0
3	1	10	24	10797	5960	0.44523180660326033831	0	1	821.06497300264891237	0	NaN	NaN	0	1	1	0	1	0
3	1	10	25	51314	6843	0.44527808378916233778	1	1	789.81663699960336089	0	244	485	1	1	0	1	2	0
3	1	10	26	28332	2726	0.44532437832094728947	0	1	830.22893300221767277	0	NaN	NaN	0	1	1	0	1	0
3	1	10	27	47309	4285	0.44537067296914756298	1	1	1048.6226720095146447	0	141	403	1	1	0	1	2	0
3	1	10	28	72788	7449	0.44541696086525917053	0	1	818.59672100108582526	0	NaN	NaN	0	1	2	0	1	0
3	1	10	29	47058	3909	0.44546326645649969578	0	1	854.90811199997551739	0	NaN	NaN	0	1	1	0	1	0
3	1	10	30	52171	6194	0.44555585295893251896	0	1	1462.2319240006618202	0	NaN	NaN	0	1	1	0	1	0
3	1	10	31	57067	3376	0.4456020457437261939	1	0	660.37424899695906788	0	484	NaN	1	0	1	0	1	0
3	1	10	32	52271	3500	0.44564835494384169579	0	1	702.76134699815884233	0	NaN	NaN	0	1	1	0	1	0
3	1	10	33	68416	6752	0.4456946392310783267	0	1	813.59302699274849147	0	NaN	NaN	0	1	1	0	1	0
3	1	10	34	56544	4739	0.4457409390015527606	0	1	1051.5527570096310228	0	NaN	NaN	0	1	1	0	1	0
3	1	10	35	31951	3456	0.44578722643200308084	0	1	1032.3399079934461042	0	NaN	NaN	0	1	1	0	1	0
3	1	10	36	19182	230	0.44583352352492511272	1	1	928.98408400651533157	0	89	164	1	1	0	1	2	0
3	1	10	37	45596	616	0.44587981747463345528	1	1	1018.0438130046240985	0	253	NaN	1	1	0	1	2	0
3	1	10	38	14529	173	0.44592611282132565975	0	1	1164.600131000042893	0	NaN	NaN	0	1	1	0	1	0
3	1	10	39	49876	2163	0.44597240793518722057	0	1	824.14886700280476362	0	NaN	NaN	0	1	1	0	1	0
3	1	10	40	13397	9008	0.44606499455403536558	0	1	832.20203500241041183	0	NaN	NaN	0	1	1	0	1	0
3	1	10	41	14033	4465	0.44611129059921950102	0	1	840.4288129968335852	0	NaN	NaN	0	1	1	0	1	0
3	1	10	42	45094	7198	0.44615757942665368319	0	1	723.81011399556882679	0	NaN	NaN	0	1	1	0	1	0
3	1	10	43	33007	5817	0.44620387931354343891	0	1	605.11306198895908892	0	NaN	NaN	0	1	1	0	1	0
3	1	10	44	14626	6148	0.44625017454382032156	0	1	665.00369001005310565	0	NaN	NaN	0	1	1	0	1	0
3	1	10	45	24298	4356	0.4462964723352342844	0	1	789.04173600312788039	0	NaN	NaN	0	1	1	0	1	0
3	1	10	46	68894	4186	0.44634275685530155897	1	0	1086.840506992302835	0	494	NaN	1	0	1	0	1	0
3	1	10	47	17276	1703	0.44638905534520745277	1	1	922.59765199560206383	0	570	NaN	1	1	0	1	2	0
3	1	10	48	49337	9294	0.44643535162322223186	0	1	746.95564599824137986	0	NaN	NaN	0	1	1	0	1	0
3	1	10	49	992	6311	0.44648163963574916124	1	1	783.65876100724563003	0	133	256	1	1	0	1	2	0
3	1	10	50	15215	9492	0.4465279323048889637	0	1	645.66061699588317424	0	NaN	NaN	0	1	1	0	1	0
3	1	10	51	53646	8688	0.44657421798910945654	0	1	703.72833199508022517	0	NaN	NaN	0	1	1	0	1	0
3	1	10	52	38490	3319	0.44666681019589304924	0	1	864.11517999658826739	0	NaN	NaN	0	1	1	0	1	0
3	1	10	53	2861	1769	0.44671310228295624256	0	1	637.0872400002554059	0	NaN	NaN	0	1	1	0	1	0
3	1	10	54	44173	8140	0.44675939774606376886	0	1	704.02098300110083073	0	NaN	NaN	0	1	1	0	1	0
3	1	10	55	48969	7561	0.4468056894838809967	0	1	654.15566599403973669	0	NaN	NaN	0	1	1	0	1	0
3	1	10	56	72207	2304	0.44685199251398444176	0	1	963.71484300470910966	0	NaN	NaN	0	1	1	0	1	0
3	1	10	57	36017	2481	0.44689818879123777151	0	1	748.52333500166423619	0	NaN	NaN	0	1	1	0	1	0
3	1	10	58	22191	2880	0.44694448309019207954	1	1	1020.0423349888296798	0	402	NaN	1	1	0	1	2	0
3	1	10	59	26607	2186	0.44699077110271900892	1	0	1158.7527770025189966	0	162	NaN	1	0	1	0	1	0
3	1	10	60	36038	2935	0.44703706551808863878	0	1	744.98313601361587644	0	NaN	NaN	0	1	1	0	1	0
3	1	10	61	40679	5193	0.44708336074836552143	0	1	655.94309900188818574	0	NaN	NaN	0	1	1	0	1	0
3	1	10	62	9918	116	0.44712965586222708225	1	1	928.46048099454492331	0	267	NaN	1	1	0	1	2	0
3	1	11	1	6875	9647	0.44879131834022700787	0	1	777.61854500568006188	0	NaN	NaN	0	1	1	0	1	0
3	1	11	2	6083	1791	0.44883762078825384378	0	1	638.69452899962197989	0	NaN	NaN	0	1	1	0	1	0
3	1	11	3	70436	1407	0.44888390135020017624	0	1	622.88214000000152737	0	NaN	NaN	0	1	1	0	1	0
3	1	11	4	56043	770	0.44893020507879555225	0	1	892.31250398734118789	0	NaN	NaN	0	1	1	0	1	0
3	1	11	5	41151	2830	0.44897649588529020548	0	1	1091.0955480067059398	0	NaN	NaN	0	1	1	0	1	0
3	1	11	6	30204	2129	0.44902280159294605255	0	1	985.26256698823999614	0	NaN	NaN	0	1	1	0	1	0
3	1	11	7	23856	2579	0.44906908727716654539	0	1	646.92279799783136696	0	NaN	NaN	0	1	1	0	1	0
3	1	11	8	27752	3014	0.44911538797896355391	1	1	901.66035600122995675	0	444	540	1	1	0	1	2	0
3	1	11	9	34239	459	0.44916167203336954117	0	0	1643.490585993276909	0	NaN	NaN	0	0	0	1	2	0
3	1	11	10	37456	2642	0.44920797797385603189	0	1	677.98537100316025317	0	NaN	NaN	0	1	1	0	1	0
3	1	11	11	22710	8996	0.44925425597466528416	0	0	1111.3463090005097911	0	NaN	NaN	0	0	0	1	2	0
3	1	11	12	28513	5745	0.44930054876022040844	1	1	1137.0848480000859126	0	114	NaN	1	1	0	1	2	0
3	1	11	13	43657	3410	0.4493930452736094594	0	1	868.6494229914387688	0	NaN	NaN	0	1	1	0	1	0
3	1	11	14	54703	8116	0.4494393463246524334	0	1	904.64893200260121375	0	NaN	NaN	0	1	1	0	1	0
3	1	11	15	19527	5733	0.4494856357341632247	1	1	887.90849498764146119	0	114	NaN	1	1	0	1	2	0
3	1	11	16	16243	3951	0.44953193026594817638	1	1	1176.8727380112977698	0	100	392	1	1	0	1	2	0
3	1	11	17	9304	1482	0.44957821897696703672	0	1	815.8229660039069131	0	NaN	NaN	0	1	1	0	1	0
3	1	11	18	5033	4599	0.44962451991159468889	0	1	828.81085900589823723	0	NaN	NaN	0	1	1	0	1	0
3	1	11	19	36601	4040	0.44967081199865788221	0	1	725.77495900623034686	0	NaN	NaN	0	1	1	0	1	0
3	1	11	20	52971	4982	0.44971710070967674255	0	1	870.44637900544330478	0	NaN	NaN	0	1	1	0	1	0
3	1	11	21	19448	8474	0.44976339268032461405	0	1	864.32811900158412755	0	NaN	NaN	0	1	1	0	1	0
3	1	11	22	25524	9657	0.44980969454627484083	1	1	982.64238701085560024	0	321	NaN	1	1	0	1	2	0
3	1	11	23	38771	6168	0.44990228221286088228	0	0	2231.388517000596039	1	NaN	NaN	0	0	1	1	2	0
3	1	11	24	15805	6537	0.4499485803535208106	0	1	891.01490599568933249	0	NaN	NaN	0	1	1	0	1	0
3	1	11	25	42828	4759	0.44999487116001546383	0	1	716.42062200407963246	0	NaN	NaN	0	1	1	0	1	0
3	1	11	26	13691	5514	0.45004115684423595667	1	1	1017.682352990959771	0	171	NaN	1	1	0	1	2	0
3	1	11	27	48889	4620	0.45008745347149670124	0	1	1378.133108009933494	0	NaN	NaN	0	1	1	0	1	0
3	1	11	28	29289	7333	0.4501337521942332387	0	1	822.70786099252291024	0	NaN	NaN	0	1	1	0	1	0
3	1	11	29	9715	1069	0.4501800428843125701	0	1	756.25121900520753115	0	NaN	NaN	0	1	1	0	1	0
3	1	11	30	52514	1218	0.45022634149063378572	0	1	884.32433801062870771	0	NaN	NaN	0	1	1	0	1	0
3	1	11	31	8878	1512	0.45027263648808002472	0	1	619.3977509974502027	0	NaN	NaN	0	1	1	0	1	0
3	1	11	32	5033	4599	0.45031893148552626371	1	1	1107.3258420074125752	0	13	NaN	1	1	0	1	2	0
3	1	11	33	15520	1040	0.45036522683221846819	0	1	1373.9949930022703484	0	NaN	NaN	0	1	1	0	1	0
3	1	11	34	20502	1624	0.4504115184536203742	1	1	1510.9717750019626692	1	139	NaN	1	1	1	1	2	0
3	1	11	35	44112	1808	0.4505041101947426796	1	0	1275.5603599944151938	0	333	NaN	1	0	1	0	1	0
3	1	11	36	35723	4690	0.45055039459839463234	0	1	855.03016899747308344	0	NaN	NaN	0	1	1	0	1	0
3	1	11	37	20862	5019	0.45059669867623597383	0	1	854.1479959967546165	0	NaN	NaN	0	1	1	0	1	0
3	1	11	38	21846	5219	0.45064289204310625792	0	1	847.78661699965596199	0	NaN	NaN	0	1	1	0	1	0
3	1	11	39	6761	9102	0.45068918413016945124	0	1	707.86283099732827395	0	NaN	NaN	0	1	1	0	1	0
3	1	11	40	57631	9621	0.45073548296932131052	1	0	863.81272600556258112	0	547	NaN	1	0	1	0	1	0
3	1	11	41	65180	5874	0.45078177645336836576	0	1	670.74752999178599566	0	NaN	NaN	0	1	1	0	1	0
3	1	11	42	14122	169	0.45082806283608078957	0	1	1314.8095299984561279	0	NaN	NaN	0	1	1	0	1	0
3	1	11	43	40366	9088	0.45087436656467616558	1	1	1001.4166699984343722	0	122	NaN	1	1	0	1	2	0
3	1	11	44	67604	4637	0.45096694724634289742	0	1	782.74547199544031173	0	NaN	NaN	0	1	1	0	1	0
3	1	11	45	3411	4522	0.45101324340794235468	0	1	802.51194599259179085	0	NaN	NaN	0	1	1	0	1	0
3	1	11	46	15858	7224	0.45105954189784824848	0	1	750.41225401218980551	0	NaN	NaN	0	1	1	0	1	0
3	1	11	47	49067	3822	0.45110582956112921238	0	1	564.7157539933687076	0	NaN	NaN	0	1	1	0	1	0
3	1	11	48	27920	6407	0.45115212723612785339	0	1	618.80914999346714467	0	NaN	NaN	0	1	1	0	1	0
3	1	11	49	25942	8393	0.45119842234998941422	0	0	1333.0283040122594684	0	NaN	NaN	0	0	0	1	2	0
3	1	11	50	54703	8116	0.45124471664894372225	1	1	1012.7375839947490022	0	35	NaN	1	1	0	1	2	0
3	1	11	51	15938	2044	0.4512910058256238699	0	1	785.70230399782303721	0	NaN	NaN	0	1	1	0	1	0
3	1	11	52	23173	3862	0.45133730012457817793	1	0	782.94147999258711934	0	247	NaN	1	0	1	0	1	0
3	1	11	53	41370	8019	0.45138359931297600269	0	1	775.54967500327620655	0	NaN	NaN	0	1	1	0	1	0
3	1	11	54	70436	1407	0.45147618697956204414	1	1	1091.2494640069780871	0	50	NaN	1	1	0	1	2	0
3	1	11	55	55349	7367	0.45152247685473412275	1	1	874.28409099811688066	0	589	NaN	1	1	0	1	2	0
3	1	11	56	5591	8706	0.45156877359841018915	0	0	2058.4798420022707433	1	NaN	NaN	0	0	1	1	2	0
3	1	11	57	52429	2753	0.45161506696604192257	0	1	658.91790299792774022	0	NaN	NaN	0	1	1	0	1	0
3	1	11	58	51628	3802	0.45166136336047202349	0	1	702.74085599521640688	0	NaN	NaN	0	1	1	0	1	0
3	1	11	59	25524	9657	0.45170766138471662998	1	1	817.2825950023252517	0	36	358	1	1	0	1	2	0
3	1	11	60	26467	5714	0.45175394485704600811	1	1	1347.2528999991482124	0	191	390	1	1	0	1	2	0
3	1	11	61	26352	347	0.45180015114601701498	0	1	1039.8900550062535331	0	NaN	NaN	0	1	1	0	1	0
3	1	11	62	3411	4522	0.45184644428081810474	1	1	978.11148600885644555	0	16	NaN	1	1	0	1	2	0
3	1	11	63	47251	5102	0.45189273438882082701	0	1	1657.4345150002045557	0	NaN	NaN	0	1	1	0	1	0
3	1	12	1	70876	1122	0.453478787443600595	0	1	1202.5869810022413731	0	NaN	NaN	0	1	1	0	1	0
3	1	12	2	4787	36	0.45352509536314755678	1	0	724.48234399780631065	0	286	NaN	1	0	1	0	1	0
3	1	12	3	35464	5273	0.4535713766235858202	0	NaN	NaN	NaN	NaN	NaN	0	NaN	0	0	NaN	0
3	1	12	4	72599	9335	0.45361767872236669064	1	0	1659.3602509965421632	0	269	NaN	1	0	1	0	1	0
3	1	12	5	43657	3410	0.45366396661847829819	1	1	1379.167307008174248	0	54	NaN	1	1	0	1	2	0
3	1	12	6	32351	5670	0.45371026499196887016	0	1	653.55370999895967543	0	NaN	NaN	0	1	1	0	1	0
3	1	12	7	15108	5449	0.45375655894167721272	0	1	1374.9816570052644238	0	NaN	NaN	0	1	1	0	1	0
3	1	12	8	70083	4580	0.45380286185536533594	0	1	1044.0005699929315597	0	NaN	NaN	0	1	1	0	1	0
3	1	12	9	15110	1994	0.45384913997258991003	0	1	647.05001100082881749	0	NaN	NaN	0	1	1	0	1	0
3	1	12	10	26551	1386	0.45389545196667313576	0	1	688.15009899844881147	0	NaN	NaN	0	1	1	0	1	0
3	1	12	11	51291	9828	0.45394173345994204283	0	1	1050.1097500091418624	0	NaN	NaN	0	1	1	0	1	0
3	1	12	12	54887	9484	0.45398802775889635086	1	0	802.02189899864606559	0	371	NaN	1	0	1	0	1	0
3	1	12	13	57965	1490	0.45403432182502001524	0	1	677.42576800810638815	0	NaN	NaN	0	1	1	0	1	0
3	1	12	14	11160	131	0.45412691065575927496	0	1	851.08514000603463501	0	NaN	NaN	0	1	1	0	1	0
3	1	12	15	29208	5518	0.45417320996057242155	0	1	827.29621500766370445	0	NaN	NaN	0	1	1	0	1	0
3	1	12	16	2498	1103	0.45421949855517596006	0	1	975.79873198992572725	0	NaN	NaN	0	1	1	0	1	0
3	1	12	17	7345	5354	0.45426579250488430262	0	1	1036.3543470011791214	0	NaN	NaN	0	1	1	0	1	0
3	1	12	18	34235	8405	0.45431208459194749594	0	1	777.34812699782196432	0	NaN	NaN	0	1	1	0	1	0
3	1	12	19	28501	4272	0.45435838424600660801	0	1	1137.9601639928296208	0	NaN	NaN	0	1	1	0	1	0
3	1	12	20	69484	9513	0.45440457563381642103	0	1	677.31546200229786336	0	NaN	NaN	0	1	1	0	1	0
3	1	12	21	52798	7408	0.4544508722610771656	0	1	741.2500389909837395	0	NaN	NaN	0	1	1	0	1	0
3	1	12	22	9764	2913	0.45449716539587825537	1	0	543.38902900053653866	0	140	NaN	1	0	1	0	1	0
3	1	12	23	69708	1834	0.45454346027690917253	0	1	1002.6229740033159032	0	NaN	NaN	0	1	1	0	1	0
3	1	12	24	32794	7141	0.45463604829274117947	0	1	831.70774900645483285	0	NaN	NaN	0	1	1	0	1	0
3	1	12	25	50958	1784	0.45468234294094145298	0	1	803.09018900152295828	0	NaN	NaN	0	1	1	0	1	0
3	1	12	26	26729	3880	0.45472862815950065851	0	0	1054.3627979932352901	0	NaN	NaN	0	0	0	1	2	0
3	1	12	27	70436	1407	0.45477492827922105789	1	1	854.33599899988621473	0	35	86	1	1	0	1	2	0
3	1	12	28	65222	5778	0.45482122385874390602	0	1	765.79135800420772284	0	NaN	NaN	0	1	1	0	1	0
3	1	12	29	20257	5306	0.45486751932185143232	0	1	677.51318900263868272	0	NaN	NaN	0	1	1	0	1	0
3	1	12	30	60498	6677	0.45491381268948316574	0	1	587.04223899985663593	0	NaN	NaN	0	1	1	0	1	0
3	1	12	31	23151	6378	0.45496009790804237127	0	1	869.8484329943312332	0	NaN	NaN	0	1	1	0	1	0
3	1	12	32	8912	2451	0.45500639337114989758	1	0	670.0005029997555539	0	305	NaN	1	0	1	0	1	0
3	1	12	33	49067	3822	0.4550526889506727457	1	0	662.3622010083636269	0	48	NaN	1	0	1	0	1	0
3	1	12	34	68562	5870	0.45514528627973049879	0	0	1410.2987980004400015	0	NaN	NaN	0	0	0	1	2	0
3	1	12	35	30119	2567	0.45519157336093485355	0	1	636.32140900881495327	0	NaN	NaN	0	1	1	0	1	0
3	1	12	36	59164	1446	0.45523787150159478188	0	1	766.55755599495023489	0	NaN	NaN	0	1	1	0	1	0
3	1	12	37	14529	173	0.45528416801244020462	1	1	902.60349000163841993	0	123	NaN	1	1	0	1	2	0
3	1	12	38	31850	5360	0.45533045916818082333	0	1	914.41162201226688921	0	NaN	NaN	0	1	1	0	1	0
3	1	12	39	38771	6168	0.45537674950901418924	1	1	1016.772060000221245	0	78	NaN	1	1	0	1	2	0
3	1	12	40	5033	4599	0.45542304939590394497	1	1	902.73325999442022294	0	70	84	1	1	0	1	2	0
3	1	12	41	11110	4614	0.45546933449804782867	0	1	1002.9964559944346547	0	NaN	NaN	0	1	1	0	1	0
3	1	12	42	5736	8417	0.45551564032211899757	0	1	1370.3914399957284331	0	NaN	NaN	0	1	1	0	1	0
3	1	12	43	39647	2034	0.45560811844188719988	0	1	764.1605979879386723	0	NaN	NaN	0	1	1	0	1	0
3	1	12	44	29838	398	0.45565442321822047234	0	1	636.10611599870026112	0	NaN	NaN	0	1	1	0	1	0
3	1	12	45	46912	8629	0.45570070925168693066	0	1	1959.5511770021403208	0	NaN	NaN	0	1	1	0	1	0
3	1	12	46	14848	1411	0.45574701065197587013	0	1	817.54880798689555377	0	NaN	NaN	0	1	1	0	1	0
3	1	12	47	61971	2152	0.45579330448526889086	0	1	817.70844900165684521	0	NaN	NaN	0	1	1	0	1	0
3	1	12	48	71502	6858	0.45583959971554577351	0	1	1548.4725830028764904	0	NaN	NaN	0	1	1	0	1	0
3	1	12	49	40351	9391	0.45588589273393154144	0	1	773.94580301188398153	0	NaN	NaN	0	1	1	0	1	0
3	1	12	50	7345	5354	0.45593218808062374592	1	1	926.34872799681033939	0	32	NaN	1	1	0	1	2	0
3	1	12	51	58145	805	0.45597848307806998491	1	1	941.67265899886842817	0	240	NaN	1	1	0	1	2	0
3	1	12	52	3397	4665	0.45607106818351894617	0	0	1458.9589340030215681	0	NaN	NaN	0	0	0	1	2	0
3	1	12	53	48969	7561	0.45611735759302973747	1	0	2006.169436004711315	0	122	NaN	1	0	1	0	1	0
3	1	12	54	12979	8160	0.45616365852765738964	0	1	809.0764100052183494	0	NaN	NaN	0	1	1	0	1	0
3	1	12	55	9938	2161	0.45620994968339800835	0	1	667.63421299401670694	0	NaN	NaN	0	1	1	0	1	0
3	1	12	56	27777	7903	0.45625624293461441994	0	1	858.75879401282873005	0	NaN	NaN	0	1	1	0	1	0
3	1	12	57	37964	7560	0.45630253618583083153	0	1	590.08255499065853655	0	NaN	NaN	0	1	1	0	1	0
3	1	12	58	19116	2370	0.45634882710874080658	0	1	767.97206199262291193	0	NaN	NaN	0	1	1	0	1	0
3	1	12	59	68555	2563	0.45639512932393699884	0	1	821.04519600397907197	0	NaN	NaN	0	1	1	0	1	0
3	1	12	60	48682	670	0.45644141989760100842	0	1	776.06394399481359869	0	NaN	NaN	0	1	1	0	1	0
3	1	12	61	26367	9409	0.45648771640844643116	0	1	762.2151149989804253	0	NaN	NaN	0	1	1	0	1	0
3	1	12	62	32059	9681	0.45653401082381606102	0	1	690.72409599903039634	0	NaN	NaN	0	1	1	0	1	0
3	2	1	1	36159	8819	8.4025822712574154139	0	1	1311.1003290000553534	0	NaN	NaN	0	1	1	0	1	0
3	2	1	2	2808	2972	8.4026285747531801462	0	1	711.20104800002081902	0	NaN	NaN	0	1	1	0	1	0
3	2	1	3	14595	175	8.4026748648611828685	0	1	536.61483099995166413	0	NaN	NaN	0	1	1	0	1	0
3	2	1	4	25539	6169	8.4027211713837459683	1	0	632.06305299991072388	0	219	NaN	0	1	1	0	1	0
3	2	1	5	68972	1591	8.4027674592798575759	0	1	567.34380699981556972	0	NaN	NaN	0	1	1	0	1	0
3	2	1	6	3092	4692	8.4028137659188359976	0	1	533.24064399976123241	0	NaN	NaN	0	1	1	0	1	0
3	2	1	7	45910	4152	8.4028600420570001006	0	1	724.13766599993323325	0	NaN	NaN	0	1	1	0	1	0
3	2	1	8	56471	7167	8.402906363015063107	0	1	615.99708100038697012	0	NaN	NaN	0	1	1	0	1	0
3	2	1	9	14033	4465	8.4029526252998039126	1	0	507.96103800030323328	0	154	NaN	0	1	1	0	1	0
3	2	1	10	49048	5313	8.4029989229748025537	0	1	724.8401409997313749	0	NaN	NaN	0	1	1	0	1	0
3	2	1	11	24481	305	8.4030452196020632982	0	1	747.1384349996696983	0	NaN	NaN	0	1	1	0	1	0
3	2	1	12	21016	9575	8.4030915453331544995	1	0	599.0773339999577729	0	346	NaN	0	1	1	0	1	0
3	2	1	13	36975	487	8.4031378086656332016	0	1	663.96190400018895161	0	NaN	NaN	0	1	1	0	1	0
3	2	1	14	37941	3997	8.4031841421965509653	0	1	677.64658900023277965	0	NaN	NaN	0	1	1	0	1	0
3	2	1	15	53414	7390	8.4032767396420240402	1	0	715.15519300010055304	0	233	NaN	0	1	1	0	1	0
3	2	1	16	63900	1277	8.4033229761989787221	0	1	703.2101380000312929	0	NaN	NaN	0	1	1	0	1	0
3	2	1	17	3177	2195	8.403369333827868104	0	1	797.72726200008037267	0	NaN	NaN	0	1	1	0	1	0
3	2	1	18	27861	5101	8.4034155672416090965	0	1	988.39908599984482862	0	NaN	NaN	0	1	1	0	1	0
3	2	1	19	65494	1826	8.4034619331359863281	0	1	685.8902520002629899	0	NaN	NaN	0	1	1	0	1	0
3	2	1	20	68972	1591	8.4035081586334854364	1	1	1078.2639359999848239	0	14	NaN	1	1	0	1	2	0
3	2	1	21	39573	2080	8.4035545301157981157	0	1	772.49427900005684933	0	NaN	NaN	0	1	1	0	1	0
3	2	1	22	64065	3804	8.403600753634236753	0	1	766.25902900013898034	0	NaN	NaN	0	1	1	0	1	0
3	2	1	23	10152	2773	8.4036471245344728231	0	1	712.01791200019215466	0	NaN	NaN	0	1	1	0	1	0
3	2	1	24	63600	5345	8.4037397225620225072	1	0	615.9125760000279115	0	190	NaN	0	1	1	0	1	0
3	2	1	25	13860	7130	8.4037859227973967791	1	0	1279.6220289997108921	0	336	497	0	1	1	0	1	0
3	2	1	26	47314	3770	8.4038323061540722847	1	0	858.25264400000378373	0	646	NaN	0	1	1	0	1	0
3	2	1	27	26551	1386	8.4038785146549344063	1	0	776.92448500010868884	0	78	NaN	0	1	1	0	1	0
3	2	1	28	51171	9317	8.403924902668222785	0	1	930.55328399987047305	0	NaN	NaN	0	1	1	0	1	0
3	2	1	29	63750	8105	8.4039711039513349533	0	1	1307.3185069997634855	0	NaN	NaN	0	1	1	0	1	0
3	2	1	30	64048	8280	8.4040174988331273198	1	0	1493.6459020000256714	0	413	NaN	0	1	1	0	1	0
3	2	1	31	36911	485	8.4040636890567839146	0	1	764.15203000033216085	0	NaN	NaN	0	1	1	0	1	0
3	2	1	32	16703	200	8.4041099062887951732	0	1	811.9669620000422583	0	NaN	NaN	0	1	1	0	1	0
3	2	1	33	29760	9130	8.4041561762569472194	0	1	902.52304199975696974	0	NaN	NaN	0	1	1	0	1	0
3	2	1	34	35219	2587	8.4042024847585707903	0	1	1152.1484039999450033	0	NaN	NaN	0	1	1	0	1	0
3	2	1	35	18022	2904	8.4042487626429647207	0	1	1171.0459979999541247	0	NaN	NaN	0	1	1	0	1	0
3	2	1	36	54547	4239	8.404341356479562819	0	1	1052.1987140000419458	0	NaN	NaN	0	1	1	0	1	0
3	2	1	37	31591	8001	8.404387652175500989	0	1	740.2242910002314602	0	NaN	NaN	0	1	1	0	1	0
3	2	1	38	11178	3312	8.4044339463580399752	0	1	772.2125939999386901	0	NaN	NaN	0	1	1	0	1	0
3	2	1	39	6554	6903	8.4044802353018894792	0	1	619.64154299994333996	0	NaN	NaN	0	1	1	0	1	0
3	2	1	40	49048	5313	8.4045265258755534887	1	1	1239.4407140000112122	0	29	NaN	1	1	0	1	2	0
3	2	1	41	45065	5567	8.4045728278579190373	0	1	1010.421107000183838	0	NaN	NaN	0	1	1	0	1	0
3	2	1	42	21550	9012	8.404619117733091116	0	1	704.15796399993269006	0	NaN	NaN	0	1	1	0	1	0
3	2	1	43	2069	5208	8.4046654078410938382	0	1	702.8632110000216926	0	NaN	NaN	0	1	1	0	1	0
3	2	1	44	23213	3475	8.4047117081936448812	0	1	732.03258600005938206	0	NaN	NaN	0	1	1	0	1	0
3	2	1	45	10317	2336	8.4047579974867403507	1	0	919.67627899975923356	0	366	433	0	1	1	0	1	0
3	2	1	46	13397	9008	8.4048505843384191394	1	0	666.12435700017158524	0	192	NaN	0	1	1	0	1	0
3	2	1	47	15883	7974	8.4048968871356919408	1	0	709.35849800025607692	0	333	539	0	1	1	0	1	0
3	2	1	48	16232	8441	8.4049431803869083524	1	1	2019.8607519996585324	1	582	NaN	0	0	1	1	2	0
3	2	1	49	5603	53	8.4049894716590642929	1	0	847.11001200003011036	0	565	NaN	0	1	1	0	1	0
3	2	1	50	3627	14	8.4050357685191556811	1	1	1779.67902000000322	0	224	NaN	0	0	0	1	2	0
3	2	1	51	25827	2255	8.405082066310569644	1	1	1731.1456160000489035	0	256	NaN	0	0	0	1	2	0
3	2	1	52	65273	4096	8.4051283493172377348	0	1	1238.2933990002129576	0	NaN	NaN	0	1	1	0	1	0
3	2	1	53	61749	848	8.4051746451295912266	0	1	818.70706400013659731	0	NaN	NaN	0	1	1	0	1	0
3	2	1	54	39295	4139	8.4052209371002390981	0	1	804.20747899961497751	0	NaN	NaN	0	1	1	0	1	0
3	2	1	55	35299	9969	8.4053135368740186095	0	1	948.03493100016567041	0	NaN	NaN	0	1	1	0	1	0
3	2	1	56	47265	5604	8.4053598212776705623	0	1	1185.1797209997130267	0	NaN	NaN	0	1	1	0	1	0
3	2	1	57	70241	5629	8.4054061154602095485	0	1	748.44599900006869575	0	NaN	NaN	0	1	1	0	1	0
3	2	1	58	16555	5555	8.4054524081293493509	0	1	2062.8516900001159229	0	NaN	NaN	0	1	1	0	1	0
3	2	1	59	8007	86	8.4054987068520858884	0	1	1669.3193010000868526	0	NaN	NaN	0	1	1	0	1	0
3	2	1	60	48047	7292	8.4055449060397222638	0	1	1008.8975510002455849	0	NaN	NaN	0	1	1	0	1	0
3	2	1	61	22520	2391	8.405591194867156446	0	1	1645.5655490003664454	0	NaN	NaN	0	1	1	0	1	0
3	2	1	62	30354	1282	8.4056374962674453855	0	1	1415.6832349999604048	0	NaN	NaN	0	1	1	0	1	0
3	2	1	63	61971	2152	8.4056837850948795676	1	0	1291.7574630000672187	0	77	NaN	0	1	1	0	1	0
3	2	2	1	21293	7785	8.4071217055898159742	0	1	1368.9160549997723137	0	NaN	NaN	0	1	1	0	1	0
3	2	2	2	10945	4946	8.4071680073393508792	0	1	1271.0123990000283811	0	NaN	NaN	0	1	1	0	1	0
3	2	2	3	10596	6483	8.4072142917430028319	0	1	1257.1781149999878835	0	NaN	NaN	0	1	1	0	1	0
3	2	2	4	2812	1436	8.4072605971014127135	0	1	1006.5116670002680621	0	NaN	NaN	0	1	1	0	1	0
3	2	2	5	68271	6808	8.4073068811558187008	0	1	1050.6162860001495574	0	NaN	NaN	0	1	1	0	1	0
3	2	2	6	40616	6129	8.4073531697504222393	0	1	1103.7550430000919732	0	NaN	NaN	0	1	1	0	1	0
3	2	2	7	40951	3625	8.407399466959759593	0	1	832.5368480000179261	0	NaN	NaN	0	1	1	0	1	0
3	2	2	8	49741	4127	8.4074457661481574178	0	1	784.51086599989139359	0	NaN	NaN	0	1	1	0	1	0
3	2	2	9	4787	36	8.4074920548591762781	1	0	972.42576100006772322	0	131	418	0	1	1	0	1	0
3	2	2	10	40951	3625	8.4075383464805781841	1	1	950.20754400002260809	0	2	NaN	1	1	0	1	2	0
3	2	2	11	72333	8509	8.4076309297233819962	0	1	869.89053100023738807	0	NaN	NaN	0	1	1	0	1	0
3	2	2	12	40973	7629	8.4076772334519773722	0	1	783.20510399998966022	0	NaN	NaN	0	1	1	0	1	0
3	2	2	13	52514	1218	8.407723525888286531	1	0	1753.8040549998186179	1	170	NaN	0	1	1	1	1	0
3	2	2	14	24603	6410	8.4077698165783658624	1	0	2521.2615929999628861	0	267	NaN	0	1	1	0	1	0
3	2	2	15	13139	159	8.4078161196084693074	0	1	748.55294600001798244	0	NaN	NaN	0	1	1	0	1	0
3	2	2	16	36911	485	8.4078624054091051221	1	1	902.99623000009887619	0	47	NaN	1	1	0	1	2	0
3	2	2	17	47726	3127	8.4079086965648457408	0	1	780.35486399994624662	0	NaN	NaN	0	1	1	0	1	0
3	2	2	18	69267	9744	8.4079549954039976001	0	1	1031.1091159996976785	0	NaN	NaN	0	1	1	0	1	0
3	2	2	19	27065	3412	8.4080012856284156442	0	1	1060.8992340003169375	0	NaN	NaN	0	1	1	0	1	0
3	2	2	20	13621	9461	8.408047487260773778	0	1	862.41238299999167793	0	NaN	NaN	0	1	1	0	1	0
3	2	2	21	48889	4620	8.4081400700379163027	1	0	777.13439199987988104	0	181	NaN	0	1	1	0	1	0
3	2	2	22	8703	4250	8.4081863764440640807	0	1	1060.1539670001329796	0	NaN	NaN	0	1	1	0	1	0
3	2	2	23	15070	8816	8.4082326586358249187	1	0	888.65414099973349948	0	272	NaN	0	1	1	0	1	0
3	2	2	24	35219	2587	8.4082789624808356166	1	1	925.89560999977038591	0	52	NaN	1	1	0	1	2	0
3	2	2	25	5192	7627	8.4083252552663907409	0	1	1065.4528219997700944	0	NaN	NaN	0	1	1	0	1	0
3	2	2	26	25455	327	8.4083715403685346246	0	1	971.18742599968754803	0	NaN	NaN	0	1	1	0	1	0
3	2	2	27	23368	7054	8.4084178430493921041	0	1	1777.6685919998271856	0	NaN	NaN	0	1	1	0	1	0
3	2	2	28	21741	6637	8.4084641345543786883	0	1	1562.3696070001642511	0	NaN	NaN	0	1	1	0	1	0
3	2	2	29	48822	4945	8.4085104229161515832	0	1	1004.2261660000804113	0	NaN	NaN	0	1	1	0	1	0
3	2	2	30	55708	3524	8.4085567250149324536	0	1	1170.6301359999997658	0	NaN	NaN	0	1	1	0	1	0
3	2	2	31	11423	8854	8.408603015705011785	0	1	1221.2555119999706221	0	NaN	NaN	0	1	1	0	1	0
3	2	2	32	49067	3822	8.4086493165232241154	1	0	762.4081220001244219	0	123	172	0	1	1	0	1	0
3	2	2	33	14529	173	8.4086956074461340904	1	1	1622.2373840000727796	1	120	244	0	0	1	1	2	0
3	2	2	34	71750	3975	8.4087881939485669136	0	1	902.16331999999965774	0	NaN	NaN	0	1	1	0	1	0
3	2	2	35	15519	8077	8.4088344897609204054	0	1	886.26753800008373219	0	NaN	NaN	0	1	1	0	1	0
3	2	2	36	72339	3935	8.4088807768421247602	0	1	603.19228900016241823	0	NaN	NaN	0	1	1	0	1	0
3	2	2	37	2069	5208	8.4089270768454298377	1	1	865.87282900018180953	0	56	NaN	1	1	0	1	2	0
3	2	2	38	44273	3179	8.4089733718428760767	0	1	1515.977529999872786	0	NaN	NaN	0	1	1	0	1	0
3	2	2	39	1624	1189	8.4090196659089997411	0	1	2234.5832940000036615	0	NaN	NaN	0	1	1	0	1	0
3	2	2	40	70042	8403	8.4090659593930467963	0	1	1002.7891139998246217	0	NaN	NaN	0	1	1	0	1	0
3	2	2	41	26829	1776	8.4091122541576623917	0	1	1681.5262929999335029	0	NaN	NaN	0	1	2	0	1	0
3	2	2	42	35399	4187	8.4091585490386933088	0	1	1470.4963919998590427	0	NaN	NaN	0	1	1	0	1	0
3	2	2	43	39501	3769	8.4092048456659540534	0	1	1248.5459579997950641	0	NaN	NaN	0	1	1	0	1	0
3	2	2	44	45539	4812	8.4092973275110125542	0	1	870.75980999998137122	0	NaN	NaN	0	1	1	0	1	0
3	2	2	45	47324	6635	8.409343629376962781	0	1	1456.9383060002110142	0	NaN	NaN	0	1	1	0	1	0
3	2	2	46	57965	1490	8.4093899201834574342	1	0	1104.3896890000723943	0	157	NaN	0	1	1	0	1	0
3	2	2	47	18140	9571	8.4094362187897786498	1	1	1234.3454230003771954	0	280	NaN	0	0	0	1	2	0
3	2	2	48	26551	1386	8.4094825101783499122	1	1	1003.1277900002351089	0	83	162	1	1	0	1	2	0
3	2	2	49	41940	5896	8.4095288057578727603	1	0	1002.4519920002603612	0	331	NaN	0	1	1	0	1	0
3	2	2	50	61489	3371	8.4095750999404117465	0	1	1087.954587999774958	0	NaN	NaN	0	1	1	0	1	0
3	2	2	51	37149	8303	8.4096213853918015957	0	1	1428.36617800003296	0	NaN	NaN	0	1	1	0	1	0
3	2	2	52	61081	8258	8.4096676867920905352	0	0	1527.5105259997872054	0	NaN	NaN	0	0	0	1	2	0
3	2	2	53	25486	2854	8.4097139736404642463	0	0	1573.3413560001281439	0	NaN	NaN	0	0	0	1	2	0
3	2	2	54	28513	5745	8.4098065698053687811	1	1	1535.9371270001247467	0	229	344	0	0	0	1	2	0
3	2	2	55	40409	8175	8.4098528560716658831	1	0	1851.1060679998081469	0	449	NaN	0	1	1	0	1	0
3	2	2	56	58701	6851	8.4098991533974185586	0	1	1667.3950209997201455	0	NaN	NaN	0	1	1	0	1	0
3	2	2	57	9231	108	8.4099454443203285336	0	1	1703.6300499999015301	0	NaN	NaN	0	1	1	0	1	0
3	2	2	58	14595	175	8.4099917394341900945	1	1	935.09008999990328448	0	117	NaN	1	1	0	1	2	0
3	2	2	59	58701	6851	8.4100380414165556431	1	1	1210.971668000183854	0	2	NaN	1	1	0	1	2	0
3	2	2	60	37149	8303	8.4100843289634212852	1	1	1014.8065510002197698	0	8	NaN	1	1	0	1	2	0
3	2	2	61	61312	3663	8.41013062943238765	0	1	1080.6119250000847387	0	NaN	NaN	0	1	1	0	1	0
3	2	2	62	65494	1826	8.4101769182598218322	1	1	1650.1904229999126983	0	105	NaN	1	1	0	1	2	0
3	2	3	1	61749	848	8.4116974805947393179	1	1	1177.4336830003448995	0	72	NaN	1	1	0	1	2	0
3	2	3	2	7593	1143	8.4117437793174758554	0	1	783.87457100006940891	0	NaN	NaN	0	1	1	0	1	0
3	2	3	3	50217	2020	8.4117900682613253593	0	1	1429.9535360000845685	0	NaN	NaN	0	1	1	0	1	0
3	2	3	4	14428	3783	8.4118363662855699658	0	1	974.24112399994555744	0	NaN	NaN	0	1	1	0	1	0
3	2	3	5	45539	4812	8.4118826572084799409	1	0	1111.8253619997631176	0	22	NaN	1	0	1	0	1	0
3	2	3	6	9049	106	8.4119289511581882834	0	1	1263.7346830001661147	0	NaN	NaN	0	1	1	0	1	0
3	2	3	7	39129	4361	8.4119752454571425915	0	1	919.31768799986457452	0	NaN	NaN	0	1	1	0	1	0
3	2	3	8	1122	1626	8.4120215494185686111	0	1	969.40826699983517756	0	NaN	NaN	0	1	1	0	1	0
3	2	3	9	69423	3996	8.4120678335893899202	1	1	1820.2543239999613434	0	568	NaN	0	0	0	1	2	0
3	2	3	10	56760	4292	8.4121141351060941815	0	1	766.72860700000455836	0	NaN	NaN	0	1	1	0	1	0
3	2	3	11	5591	8706	8.4122067190473899245	1	0	1037.6061540000591776	0	204	NaN	0	1	1	0	1	0
3	2	3	12	17389	1420	8.4122530048480257392	0	1	867.6380350002546038	0	NaN	NaN	0	1	1	0	1	0
3	2	3	13	26423	9893	8.4122993148630484939	0	1	1054.5488069997190905	0	NaN	NaN	0	1	1	0	1	0
3	2	3	14	29648	7841	8.4123455947265028954	0	1	918.08419300014065811	0	NaN	NaN	0	1	1	0	1	0
3	2	3	15	14309	1803	8.4123919003177434206	0	1	1280.1756059998297133	0	NaN	NaN	0	1	1	0	1	0
3	2	3	16	15520	1040	8.4124381766887381673	1	1	1635.1214540000000852	0	232	NaN	0	0	0	1	2	0
3	2	3	17	39885	3284	8.4124844791367650032	1	0	1265.9478559999115532	0	761	NaN	0	1	1	0	1	0
3	2	3	18	24004	1498	8.4125307713402435184	0	1	788.36001200033933856	0	NaN	NaN	0	1	1	0	1	0
3	2	3	19	40869	2485	8.412577061215415597	0	1	742.10447299992665648	0	NaN	NaN	0	1	1	0	1	0
3	2	3	20	13397	9008	8.4126696571474894881	1	1	929.48949099991295952	0	98	291	1	1	0	1	2	0
3	2	3	21	54887	9484	8.4127159494673833251	1	0	982.43812000009711483	0	195	567	0	1	1	0	1	0
3	2	3	22	15110	1994	8.4127622359665110707	1	0	1262.9488649999984773	0	199	NaN	0	1	1	0	1	0
3	2	3	23	46000	625	8.4128085375996306539	0	1	828.06596599994009011	0	NaN	NaN	0	1	1	0	1	0
3	2	3	24	36159	8819	8.4128548328299075365	1	1	874.32917299975088099	0	147	NaN	1	1	0	1	2	0
3	2	3	25	9419	7020	8.4129011263139545918	1	1	1219.4690669998635713	0	426	NaN	0	0	0	1	2	0
3	2	3	26	42852	570	8.4129474206129088998	0	1	1050.1036829996337474	0	NaN	NaN	0	1	1	0	1	0
3	2	3	27	34907	7066	8.4129937085090205073	0	1	2997.9974660000152653	1	NaN	NaN	0	1	1	1	1	0
3	2	3	28	14846	7410	8.413039903505705297	0	1	885.92153299987330684	0	NaN	NaN	0	1	1	0	1	0
3	2	3	29	60744	7306	8.413086206535808742	0	1	878.22977799987711478	0	NaN	NaN	0	1	1	0	1	0
3	2	3	30	21293	7785	8.4131787872174754739	1	1	966.54311500014955527	0	90	NaN	1	1	0	1	2	0
3	2	3	31	45910	4152	8.4132250822149217129	1	1	1838.7078259997906571	0	148	NaN	1	1	0	1	2	0
3	2	3	32	53712	1645	8.4132713817525655031	1	1	1331.2760409999100375	0	682	NaN	0	0	0	1	2	0
3	2	3	33	22516	276	8.4133176801260560751	0	1	988.19777200014868868	0	NaN	NaN	0	1	1	0	1	0
3	2	3	34	37422	1475	8.4133639717474579811	0	1	1286.5533559997857083	0	NaN	NaN	0	1	1	0	1	0
3	2	3	35	11100	1102	8.4134102653479203582	0	1	842.08307199969567591	0	NaN	NaN	0	1	1	0	1	0
3	2	3	36	45539	4812	8.4134565555723384023	1	1	902.39061900001615868	0	30	53	1	1	0	1	2	0
3	2	3	37	45910	4152	8.4135028542950749397	1	1	836.24165399987759884	0	5	154	1	1	0	1	2	0
3	2	3	38	36911	485	8.4135491423076018691	1	1	850.13204400001995964	0	83	131	1	1	0	1	2	0
3	2	3	39	40841	534	8.4135954424273222685	0	0	1405.4115980002279684	0	NaN	NaN	0	0	0	1	2	0
3	2	3	40	48969	7561	8.4136417349800467491	1	0	1234.3840019998424395	0	173	296	0	1	1	0	1	0
3	2	3	41	49598	7116	8.4136880297446623445	0	1	1619.7915769998871838	0	NaN	NaN	0	1	1	0	1	0
3	2	3	42	41951	4035	8.4137806184589862823	0	1	1129.1606160002629622	0	NaN	NaN	0	1	1	0	1	0
3	2	3	43	42952	6077	8.4138269101968035102	0	1	791.27398499986156821	0	NaN	NaN	0	1	1	0	1	0
3	2	3	44	55099	4593	8.4138732037972658873	0	1	990.99489100035498268	0	NaN	NaN	0	1	1	0	1	0
3	2	3	45	21751	4442	8.4139194982126355171	0	1	1343.4366960000261315	0	NaN	NaN	0	1	1	0	1	0
3	2	3	46	29760	9130	8.4139657943742349744	1	1	1119.0236420002293016	0	137	NaN	1	1	0	1	2	0
3	2	3	47	61749	848	8.4140120872762054205	1	1	1410.965144000329019	0	45	118	1	1	0	1	2	0
3	2	3	48	59858	5221	8.4140583818079903722	0	1	1135.2014270000836405	0	NaN	NaN	0	1	1	0	1	0
3	2	3	49	49048	5313	8.4141046765726059675	1	1	1022.7771069999107567	0	133	163	1	1	0	1	2	0
3	2	3	50	50087	4893	8.4141509642358869314	0	1	1602.0773239997652126	0	NaN	NaN	0	1	1	0	1	0
3	2	3	51	9028	105	8.414197262842208147	0	1	1588.4879959999125276	0	NaN	NaN	0	1	1	0	1	0
3	2	3	52	4838	1937	8.4142434635432437062	0	1	2245.971804999953747	0	NaN	NaN	0	1	1	0	1	0
3	2	3	53	16259	4900	8.4142897602869197726	1	1	1914.9675420003404724	1	802	NaN	0	0	1	1	2	0
3	2	3	54	58701	6851	8.4143823375925421715	1	1	1104.1121100001873856	0	56	59	1	1	0	1	2	0
3	2	3	55	62340	6265	8.4144286435330286622	0	1	918.94554100008463138	0	NaN	NaN	0	1	1	0	1	0
3	2	3	56	9715	1069	8.4144749343395233154	1	0	1151.646907999747782	0	276	NaN	0	1	1	0	1	0
3	2	3	57	3177	2195	8.4145212321309372783	1	1	849.72943899992969818	0	164	NaN	1	1	0	1	2	0
3	2	3	58	21169	2484	8.4145675136242061853	0	1	1178.7371949999396747	0	NaN	NaN	0	1	1	0	1	0
3	2	3	59	30713	3699	8.4146138210780918598	0	0	1787.6620000001821609	0	NaN	NaN	0	0	0	1	2	0
3	2	3	60	25480	3940	8.4146601037355139852	0	1	1180.0972149999324756	0	NaN	NaN	0	1	1	0	1	0
3	2	3	61	23368	7054	8.4147064024582505226	1	0	1139.980704999743466	0	95	NaN	1	0	1	0	1	0
3	2	3	62	59422	2492	8.4147526980377733707	0	1	903.28960500028188108	0	NaN	NaN	0	1	1	0	1	0
3	2	3	63	40973	7629	8.4147989860503003001	1	1	1091.3237979993937188	0	112	NaN	1	1	0	1	2	0
3	2	4	1	35464	5273	8.4163588074734434485	1	0	1417.5581480003529578	0	247	NaN	0	1	1	0	1	0
3	2	4	2	4543	4467	8.4164051117841154337	0	1	1106.1471809998693061	0	NaN	NaN	0	1	1	0	1	0
3	2	4	3	47265	5604	8.4164513914147391915	1	1	912.24491800039686495	0	134	NaN	1	1	0	1	2	0
3	2	4	4	49741	4127	8.4164976949105039239	1	1	1501.9797590002781362	0	120	NaN	1	1	0	1	2	0
3	2	4	5	66648	5242	8.4165439767530187964	0	1	905.60142499998619314	0	NaN	NaN	0	1	1	0	1	0
3	2	4	6	53892	742	8.4165902802487835288	0	1	889.30558999982167734	0	NaN	NaN	0	1	1	0	1	0
3	2	4	7	7918	5995	8.4166365659330040216	0	1	721.7096530002891086	0	NaN	NaN	0	1	1	0	1	0
3	2	4	8	32435	6183	8.416682860697619617	0	1	824.76752300044609001	0	NaN	NaN	0	1	1	0	1	0
3	2	4	9	7115	3974	8.4167291601188480854	0	1	825.77865999974164879	0	NaN	NaN	0	1	1	0	1	0
3	2	4	10	31915	3927	8.416821650811471045	0	1	1029.5067970000673085	0	NaN	NaN	0	1	1	0	1	0
3	2	4	11	55827	9913	8.4168679434806108475	1	0	1184.1933499999868218	0	874	NaN	0	1	1	0	1	0
3	2	4	12	34907	7066	8.41691423743031919	1	1	837.38899299987679115	0	47	NaN	1	1	0	1	2	0
3	2	4	13	61874	853	8.4169605276547372341	0	0	1583.230997000100615	0	NaN	NaN	0	0	0	1	2	0
3	2	4	14	46727	7979	8.4170068189268931746	0	0	1906.202758000290487	0	NaN	NaN	0	0	0	1	2	0
3	2	4	15	35726	2247	8.4170531141571700573	0	1	703.37750999988202238	0	NaN	NaN	0	1	1	0	1	0
3	2	4	16	39430	4061	8.4170994100859388709	1	0	609.78081499979452929	0	855	NaN	0	1	1	0	1	0
3	2	4	17	64956	7697	8.4171457092743366957	1	1	1673.8300340002751909	0	392	NaN	0	0	0	1	2	0
3	2	4	18	10719	2287	8.4171920086955651641	0	1	965.37533500031713629	0	NaN	NaN	0	1	1	0	1	0
3	2	4	19	61448	9977	8.4172845929861068726	0	1	914.18948699993052287	0	NaN	NaN	0	1	1	0	1	0
3	2	4	20	61860	6728	8.4173308862373232841	0	1	701.63037200018152362	0	NaN	NaN	0	1	1	0	1	0
3	2	4	21	11196	5811	8.4173771804198622704	0	1	764.28094600032636663	0	NaN	NaN	0	1	1	0	1	0
3	2	4	22	8580	3586	8.4174234751844778657	0	1	1703.0799569993178011	0	NaN	NaN	0	1	1	0	1	0
3	2	4	23	11731	2584	8.4174697721609845757	0	1	1115.4926789995442959	0	NaN	NaN	0	1	1	0	1	0
3	2	4	24	2595	5905	8.4175160571467131376	0	1	892.04408899968257174	0	NaN	NaN	0	1	1	0	1	0
3	2	4	25	3773	6619	8.4175623490009456873	0	1	1145.9361209999769926	0	NaN	NaN	0	1	1	0	1	0
3	2	4	26	35464	5273	8.4176086464431136847	1	1	1188.3040169996093027	0	24	272	1	1	0	1	2	0
3	2	4	27	16259	4900	8.4176549369003623724	1	1	966.46380599941039691	0	36	839	1	1	0	1	2	0
3	2	4	28	9304	1482	8.417701242258772254	1	0	1022.3343309999108897	0	323	NaN	0	1	1	0	1	0
3	2	4	29	7797	6719	8.4177475344622507691	0	1	818.37316399924020516	0	NaN	NaN	0	1	1	0	1	0
3	2	4	30	9419	7020	8.4177938282955437899	1	1	1246.868660000473028	0	67	494	1	1	0	1	2	0
3	2	4	31	18280	5563	8.4178864160785451531	0	1	954.30785199914680561	0	NaN	NaN	0	1	1	0	1	0
3	2	4	32	810	7950	8.4179327113088220358	0	1	1315.8472300001449184	0	NaN	NaN	0	1	1	0	1	0
3	2	4	33	68389	3249	8.4179789992049336433	0	1	1631.1868590000813128	0	NaN	NaN	0	1	1	0	1	0
3	2	4	34	31879	8261	8.4180252882651984692	0	1	930.6561150006018579	0	NaN	NaN	0	1	1	0	1	0
3	2	4	35	5253	8768	8.4180715933907777071	0	1	901.48588000010931864	0	NaN	NaN	0	1	1	0	1	0
3	2	4	36	61448	9977	8.4181177916470915079	1	1	838.03224300027068239	0	16	NaN	1	1	0	1	2	0
3	2	4	37	1526	9537	8.4181640866445377469	0	1	1246.683569000197167	0	NaN	NaN	0	1	1	0	1	0
3	2	4	38	69881	7895	8.4182103759376332164	0	1	1162.8373949997694581	0	NaN	NaN	0	1	1	0	1	0
3	2	4	39	24248	2206	8.4182566736126318574	0	1	766.05727700007264502	0	NaN	NaN	0	1	1	0	1	0
3	2	4	40	18530	9316	8.4183029679115861654	0	1	1073.8875160004681675	0	NaN	NaN	0	1	1	0	1	0
3	2	4	41	23151	6378	8.4183492617448791862	1	0	1020.8742200002234313	0	259	NaN	0	1	1	0	1	0
3	2	4	42	29368	4567	8.4183955548796802759	0	1	1031.4704069996878388	0	NaN	NaN	0	1	1	0	1	0
3	2	4	43	810	7950	8.418488143477588892	1	1	945.40516199958801735	0	10	NaN	1	1	0	1	2	0
3	2	4	44	10297	8037	8.4185344291618093848	0	1	1337.4186729997745715	0	NaN	NaN	0	1	1	0	1	0
3	2	4	45	18281	4211	8.4185807318426668644	1	1	1520.5928069999572472	0	404	NaN	0	0	0	1	2	0
3	2	4	46	44236	2604	8.4186270178761333227	1	0	1414.5026639998832252	0	502	516	0	1	1	0	1	0
3	2	4	47	18948	3070	8.4186733216047286987	0	1	1352.9421119992548483	0	NaN	NaN	0	1	1	0	1	0
3	2	4	48	55697	5826	8.4187196153216063976	0	1	717.50616300050751306	0	NaN	NaN	0	1	1	0	1	0
3	2	4	49	72115	2750	8.4187659010058268905	0	1	940.75957299992296612	0	NaN	NaN	0	1	1	0	1	0
3	2	4	50	3411	4522	8.4188121948391199112	1	0	888.19257300019671675	0	300	317	0	1	1	0	1	0
3	2	4	51	54592	5972	8.418858490651473403	0	1	856.56473299968638457	0	NaN	NaN	0	1	1	0	1	0
3	2	4	52	70042	8403	8.418904784950427711	1	1	969.56972399948426755	0	136	NaN	1	1	0	1	2	0
3	2	4	53	53892	742	8.4189510854193940759	1	1	928.07461299980786862	0	46	NaN	1	1	0	1	2	0
3	2	4	54	34119	3350	8.4189973791362717748	0	1	844.48499599966453388	0	NaN	NaN	0	1	1	0	1	0
3	2	4	55	25539	6169	8.4190899654058739543	1	0	1610.9979049997491529	0	238	458	1	0	1	0	1	0
3	2	4	56	53859	740	8.4191362581914290786	0	1	848.03698099949542666	0	NaN	NaN	0	1	1	0	1	0
3	2	4	57	28501	4272	8.4191825557500123978	1	0	1156.9957990004695603	0	287	NaN	0	1	1	0	1	0
3	2	4	58	32351	5670	8.4192288420163094997	1	0	1242.2687790003692498	0	301	NaN	0	1	1	0	1	0
3	2	4	59	30848	412	8.4192751363152638078	0	1	1420.5037169995193835	0	NaN	NaN	0	1	1	0	1	0
3	2	4	60	44535	7873	8.4193213332910090685	0	1	1217.7180389999193721	0	NaN	NaN	0	1	1	0	1	0
3	2	4	61	22783	282	8.4193676360882818699	0	1	1204.3677320007191156	0	NaN	NaN	0	1	1	0	1	0
3	2	4	62	52514	1218	8.4194139246828854084	1	1	1103.8249600005656248	0	173	344	1	1	0	1	2	0
3	2	5	1	70042	8403	8.4218751909211277962	1	1	1305.2140770005280501	0	10	147	1	1	0	1	2	0
3	2	5	2	70876	1122	8.4219214855693280697	1	0	1506.0064059998694574	0	312	NaN	0	1	1	0	1	0
3	2	5	3	53859	740	8.4219677869696170092	1	1	983.52490999968722463	0	8	NaN	1	1	0	1	2	0
3	2	5	4	21901	6328	8.4220140803372487426	0	1	980.2812420002737781	0	NaN	NaN	0	1	1	0	1	0
3	2	5	5	62842	9548	8.4220603781286627054	0	1	1262.7306370004589553	0	NaN	NaN	0	1	1	0	1	0
3	2	5	6	43020	9510	8.4221066783647984266	0	1	1016.9637829994826461	0	NaN	NaN	0	1	1	0	1	0
3	2	5	7	39129	4361	8.4221529252827167511	1	1	913.78931399958673865	0	124	NaN	1	1	0	1	2	0
3	2	5	8	56065	1368	8.4221992737147957087	0	0	1466.6933110001991736	0	NaN	NaN	0	0	0	1	2	0
3	2	5	9	7808	7912	8.4222455149283632636	0	1	1371.6605019999406068	0	NaN	NaN	0	1	1	0	1	0
3	2	5	10	3222	7719	8.4222918689483776689	0	1	1107.9014209999513696	0	NaN	NaN	0	1	1	0	1	0
3	2	5	11	30082	402	8.4223844618536531925	0	1	810.01046100027451757	0	NaN	NaN	0	1	1	0	1	0
3	2	5	12	39336	6404	8.4224306911928579211	0	1	960.47002700015582377	0	NaN	NaN	0	1	1	0	1	0
3	2	5	13	37149	8303	8.4224770586006343365	1	1	1197.051440999530314	0	139	148	1	1	0	1	2	0
3	2	5	14	9981	2937	8.4225232716416940093	0	1	969.41509200041764416	0	NaN	NaN	0	1	1	0	1	0
3	2	5	15	36472	9883	8.4225696554640308022	0	1	1315.0643709996074904	0	NaN	NaN	0	1	1	0	1	0
3	2	5	16	47726	3127	8.4226158712990581989	1	1	846.93027899993467145	0	185	NaN	1	1	0	1	2	0
3	2	5	17	42852	570	8.4226622518617659807	1	1	1523.8310289996661595	0	115	NaN	1	1	0	1	2	0
3	2	5	18	5879	55	8.4227084468584507704	0	0	1461.1604570000054082	0	NaN	NaN	0	0	0	1	2	0
3	2	5	19	24637	4918	8.4227547579212114215	0	1	758.59258499986026436	0	NaN	NaN	0	1	1	0	1	0
3	2	5	20	44308	7027	8.4228010376682505012	0	1	760.4256869999517221	0	NaN	NaN	0	1	1	0	1	0
3	2	5	21	14616	1905	8.4228936319705098867	0	1	1218.7124330002916395	0	NaN	NaN	0	1	1	0	1	0
3	2	5	22	53378	8442	8.4229399273172020912	0	1	776.7706980002913042	0	NaN	NaN	0	1	1	0	1	0
3	2	5	23	4483	5111	8.4229862171923741698	0	0	1518.9079359997776919	0	NaN	NaN	0	0	0	1	2	0
3	2	5	24	38646	6764	8.4230325231328606606	0	1	723.13264799959142692	0	NaN	NaN	0	1	1	0	1	0
3	2	5	25	21207	9665	8.4230788116110488772	0	1	764.50700299938034732	0	NaN	NaN	0	1	1	0	1	0
3	2	5	26	8542	6618	8.4231250009033828974	0	1	818.93656900047062663	0	NaN	NaN	0	1	1	0	1	0
3	2	5	27	12534	8844	8.4231712912442162633	0	1	1013.9222120005797478	0	NaN	NaN	0	1	1	0	1	0
3	2	5	28	54715	5631	8.4232175849610939622	0	0	1563.2756439999866416	0	NaN	NaN	0	0	0	1	2	0
3	2	5	29	26436	349	8.4232638778630644083	0	1	839.75838000060321065	0	NaN	NaN	0	1	1	0	1	0
3	2	5	30	46827	6574	8.4233564691385254264	0	1	855.52017999998497544	0	NaN	NaN	0	1	1	0	1	0
3	2	5	31	29182	9972	8.4234027662314474583	1	0	1103.778809999312216	0	829	NaN	0	1	1	0	1	0
3	2	5	32	42672	6444	8.4234490609960630536	0	1	825.64073200046550483	0	NaN	NaN	0	1	1	0	1	0
3	2	5	33	41151	2830	8.423495344934053719	1	0	851.85619699950620998	0	402	NaN	0	1	1	0	1	0
3	2	5	34	9017	8399	8.423541647382080555	0	1	866.14370899951609317	0	NaN	NaN	0	1	1	0	1	0
3	2	5	35	34940	4244	8.4235879437765106559	0	1	601.76846500053216005	0	NaN	NaN	0	1	1	0	1	0
3	2	5	36	35229	3515	8.4236342346994206309	0	1	676.92864800028473837	0	NaN	NaN	0	1	1	0	1	0
3	2	5	37	49598	7116	8.423680522246286273	1	1	904.01454699986061314	0	120	NaN	1	1	0	1	2	0
3	2	5	38	58113	8678	8.4237268241122364998	0	1	802.6040200002171332	0	NaN	NaN	0	1	1	0	1	0
3	2	5	39	8505	5890	8.4237731144530698657	0	1	753.80331900032615522	0	NaN	NaN	0	1	1	0	1	0
3	2	5	40	1176	4838	8.4238194085191935301	0	1	529.28784499999892432	0	NaN	NaN	0	1	1	0	1	0
3	2	5	41	23547	3861	8.4239119996782392263	0	1	991.00000699945667293	0	NaN	NaN	0	1	1	0	1	0
3	2	5	42	3	3728	8.4239582869922742248	0	1	1059.6277909999116673	0	NaN	NaN	0	1	1	0	1	0
3	2	5	43	62143	7625	8.4240045888582244515	0	1	760.24758000039582839	0	NaN	NaN	0	1	1	0	1	0
3	2	5	44	55334	6361	8.4240508752409368753	0	1	1103.9606409995030845	0	NaN	NaN	0	1	1	0	1	0
3	2	5	45	67604	4637	8.424097175826318562	1	0	709.33545900061290013	0	375	NaN	0	1	1	0	1	0
3	2	5	46	33852	2812	8.4241434638388454914	0	0	989.97617000077298144	0	NaN	NaN	0	0	0	2	2	0
3	2	5	47	59543	1303	8.4241897648898884654	0	1	1551.1204690001250128	0	NaN	NaN	0	1	1	0	1	0
3	2	5	48	58138	7545	8.4242360596545040607	0	1	820.99097199989046203	0	NaN	NaN	0	1	1	0	1	0
3	2	5	49	56606	2298	8.4242822600062936544	0	1	1224.3365839995021815	0	NaN	NaN	0	1	1	0	1	0
3	2	5	50	10237	5401	8.4243748409207910299	0	1	1256.5273439995507943	0	NaN	NaN	0	1	1	0	1	0
3	2	5	51	7981	9776	8.4244211358018219471	0	1	670.7657920005658525	0	NaN	NaN	0	1	1	0	1	0
3	2	5	52	23723	1056	8.4244674252113327384	0	1	1018.1214410004031379	0	NaN	NaN	0	1	1	0	1	0
3	2	5	53	7918	5995	8.4245137241668999195	1	1	956.91385600002831779	0	107	NaN	1	1	0	1	2	0
3	2	5	54	15709	5431	8.4245600156718865037	0	0	1689.1889750004338566	0	NaN	NaN	0	0	0	1	2	0
3	2	5	55	8748	8593	8.4246063140453770757	0	1	822.22227700003713835	0	NaN	NaN	0	1	1	0	1	0
3	2	5	56	32547	9719	8.4246526003116741776	0	1	875.28763399950548774	0	NaN	NaN	0	1	1	0	1	0
3	2	5	57	14626	6148	8.4246989025268703699	1	1	1792.4424650000219117	0	449	NaN	0	0	0	1	2	0
3	2	5	58	69499	2687	8.4247451990377157927	0	1	936.58344800041959388	0	NaN	NaN	0	1	1	0	1	0
3	2	5	59	35399	4187	8.4247914926381781697	1	0	1812.4016299998402246	0	203	NaN	1	0	1	0	1	0
3	2	5	60	28598	3765	8.4248377860058099031	0	1	1322.7168189996518777	0	NaN	NaN	0	1	1	0	1	0
3	2	5	61	3700	4431	8.4248840766958892345	0	1	902.18589899996004533	0	NaN	NaN	0	1	1	0	1	0
3	2	5	62	9715	1069	8.4249303662218153477	1	1	1033.7719970002581249	0	130	407	1	1	0	1	2	0
3	2	5	63	27765	7531	8.4249766712309792638	0	1	969.68214099979377352	0	NaN	NaN	0	1	1	0	1	0
3	2	6	1	7918	5995	8.4264416767982766032	1	1	1171.4876329997423454	0	10	118	1	1	0	1	2	0
3	2	6	2	61656	8152	8.4264879804104566574	0	1	1262.6688379996267031	0	NaN	NaN	0	1	1	0	1	0
3	2	6	3	57157	3854	8.4265342659782618284	0	1	841.89165599946136354	0	NaN	NaN	0	1	1	0	1	0
3	2	6	4	32937	2311	8.4265805716859176755	0	1	933.2676809999611578	0	NaN	NaN	0	1	1	0	1	0
3	2	6	5	50087	4893	8.4266268534120172262	1	0	1163.1213420005224179	0	142	NaN	1	0	1	0	1	0
3	2	6	6	20759	1470	8.4266731564421206713	0	1	1179.5762080000713468	0	NaN	NaN	0	1	1	0	1	0
3	2	6	7	41151	2830	8.4267194353742524981	1	1	892.54142800018598791	0	36	439	1	1	0	1	2	0
3	2	6	8	38818	511	8.4267657427117228508	1	1	1405.0572649994137464	0	550	NaN	0	0	0	1	2	0
3	2	6	9	55933	1066	8.4268120258348062634	0	1	1712.7842079999027192	0	NaN	NaN	0	1	1	0	1	0
3	2	6	10	24508	8504	8.4268583268858492374	0	1	1446.2032279998311424	0	NaN	NaN	0	1	1	0	1	0
3	2	6	11	32937	2311	8.4269046190893277526	1	1	1017.9554420001295512	0	6	NaN	1	1	0	1	2	0
3	2	6	12	69309	9040	8.4269972071051597595	0	1	1244.314106000274478	0	NaN	NaN	0	1	1	0	1	0
3	2	6	13	67186	8422	8.4270435112994164228	0	1	871.3642989996515098	0	NaN	NaN	0	1	1	0	1	0
3	2	6	14	1176	4838	8.4270897932583466172	1	1	928.46393699983309489	0	36	NaN	1	1	0	1	2	0
3	2	6	15	67596	7165	8.427136088372208178	0	1	1022.1846700005698949	0	NaN	NaN	0	1	1	0	1	0
3	2	6	16	3397	4665	8.4271823803428560495	1	0	1103.8330210003550746	0	338	NaN	0	1	1	0	1	0
3	2	6	17	22516	276	8.4272286709165200591	1	1	1509.0053899994018138	0	171	NaN	1	1	0	1	2	0
3	2	6	18	1263	6487	8.4272749715019017458	0	1	977.56823100007750327	0	NaN	NaN	0	1	1	0	1	0
3	2	6	19	46978	8383	8.4273212687112390995	0	1	832.73592000023199944	0	NaN	NaN	0	1	1	0	1	0
3	2	6	20	46421	4095	8.4273675525328144431	1	0	1291.4134310003646533	0	533	NaN	0	1	1	0	1	0
3	2	6	21	38055	7176	8.4274138510227203369	0	1	968.20063499944808427	0	NaN	NaN	0	1	1	0	1	0
3	2	6	22	16296	5279	8.4275064412504434586	0	1	859.91344800004299032	0	NaN	NaN	0	1	1	0	1	0
3	2	6	23	23547	3861	8.4275527292629703879	1	1	748.24839600023551611	0	44	NaN	1	1	0	1	2	0
3	2	6	24	67843	7300	8.4275990303140133619	1	0	814.34406500011391472	0	950	NaN	0	1	1	0	1	0
3	2	6	25	71517	9879	8.4276453254278749228	0	1	772.95868799956224393	0	NaN	NaN	0	1	1	0	1	0
3	2	6	26	1687	5288	8.4276916187955066562	0	1	844.5828339999934542	0	NaN	NaN	0	1	1	0	1	0
3	2	6	27	72863	8201	8.4277379120467230678	0	1	1302.3359950002486585	0	NaN	NaN	0	1	1	0	1	0
3	2	6	28	22447	9458	8.4277842059964314103	0	1	787.66874299981282093	0	NaN	NaN	0	1	1	0	1	0
3	2	6	29	51078	700	8.4278305004118010402	0	1	773.98577300027682213	0	NaN	NaN	0	1	1	0	1	0
3	2	6	30	58138	7545	8.4278767958749085665	1	1	772.14593600001535378	0	44	NaN	1	1	0	1	2	0
3	2	6	31	44502	9753	8.4279230930842459202	0	1	913.25414099992485717	0	NaN	NaN	0	1	1	0	1	0
3	2	6	32	71677	2981	8.4279693827265873551	0	1	1323.8276619995303918	0	NaN	NaN	0	1	1	0	1	0
3	2	6	33	32937	2311	8.4280156780732795596	1	1	730.72028800015687011	0	21	28	1	1	0	1	2	0
3	2	6	34	11100	1102	8.4281081630615517497	1	1	1002.8908940003020689	0	186	NaN	1	1	0	1	2	0
3	2	6	35	26607	2186	8.428154457826167345	1	0	1274.5171920005304855	0	475	638	0	1	1	0	1	0
3	2	6	36	39181	5676	8.4282007572473958135	0	1	1019.3802039993897779	0	NaN	NaN	0	1	1	0	1	0
3	2	6	37	27164	2841	8.4282470472389832139	0	1	706.06887200028722873	0	NaN	NaN	0	1	1	0	1	0
3	2	6	38	68390	9452	8.4282933431677520275	0	1	782.89430300083040493	0	NaN	NaN	0	1	1	0	1	0
3	2	6	39	60005	6883	8.428339634439907968	0	1	670.71984100039117038	0	NaN	NaN	0	1	1	0	1	0
3	2	6	40	54848	5686	8.4283859312999993563	0	1	1150.0949419996686629	0	NaN	NaN	0	1	1	0	1	0
3	2	6	41	2135	1448	8.4284322292078286409	0	1	825.79296599942608736	0	NaN	NaN	0	1	1	0	1	0
3	2	6	42	68976	2353	8.4284785224590450525	0	1	1458.3933239991893061	0	NaN	NaN	0	1	1	0	1	0
3	2	6	43	20961	7726	8.428524815128184855	0	1	847.55835099986143177	0	NaN	NaN	0	1	1	0	1	0
3	2	6	44	32369	6890	8.4286174034932628274	0	1	584.15828299985150807	0	NaN	NaN	0	1	1	0	1	0
3	2	6	45	48448	6928	8.4286636991892009974	0	1	734.11975900035031373	0	NaN	NaN	0	1	1	0	1	0
